stimulusID,stimulus_JPG,stimulusPath,stimulusPath2,stimulusPath3,stimulusPath4,stimulusPath5,stimulusPath6,xRayOriginal,xRayPath,Training.thisRepN,Training.thisTrialN,Training.thisN,Training.thisIndex,Blocks.thisRepN,Blocks.thisTrialN,Blocks.thisN,Blocks.thisIndex,Trials.thisRepN,Trials.thisTrialN,Trials.thisN,Trials.thisIndex,text_2.started,text_2.stopped,image.started,image.stopped,image_2.started,image_2.stopped,image_3.started,image_3.stopped,image_4.started,image_4.stopped,image_6.started,image_6.stopped,image_7.started,image_7.stopped,image_8.started,image_8.stopped,image_9.started,image_9.stopped,image_10.started,image_10.stopped,image_12.started,image_12.stopped,xrayID,trialNumber,blockNumber,stimLocationDeg,stimXCoord,stimYCoord,stimulusID,blockType,trainingXray.started,trainingXray.stopped,trainingTumors.started,trainingTumors.stopped,trainingScore%,startTrainingRespTime,endTrainingRespTime,trainingRT,morphTrack,morphID,errorRaw,errorCorrected,startTrainingStimTime,endTrainingStimTime,key_resp_3.keys,key_resp_3.rt,text.started,text.stopped,text_3.started,text_3.stopped,text_4.started,text_4.stopped,key_resp_5.keys,key_resp_5.rt,key_resp_5.started,key_resp_5.stopped,xray1.started,xray1.stopped,tumors.started,tumors.stopped,trialCorrect%,startRespTime,endRespTime,RT,startStimTime,endStimTime,key_resp.keys,key_resp.rt,participant,session,age,gender,status,date,expName,psychopyVersion,frameRate
30,Stimuli/Morph30.JPG,Stimuli/Morph30.png,Stimuli/BlurLevel5/BlurEditedMorph30,Stimuli/BlurLevel5/BlurEditedMorph30.png,Stimuli/BlurLevel5/NumberedMorphs/BlurEditedMorph30.png,Stimuli/BlurLevel5/OriginalBlur/BlurEditedMorph30.png,Stimuli/BlurMorphTrio/EditedMorph30.png,010076right.gif,Stimuli/normal_thumbnails/30right.gif,0,0,0,29,,,,,,,,,63.97748555,None,63.97748555,None,63.97748555,None,63.97748555,None,63.97748555,None,63.97748555,None,63.97748555,None,63.97748555,None,63.97748555,None,63.97748555,None,63.97748555,None,80,-100,-100,329,2.142918252,-1.287595187,30,training,96.06375431,96.56043769,96.06375431,96.56043769,95.91836735,1575397453,1575397458,4.733204126,121,27,3,3,1575397451,1575397453,space,5.419793731,,,,,,,,,,,,,,,,,,,,,,,S1,1,64,M,Expert Radiologist,2019_Dec_03_1223,AdjustEyeTrack,3.1.5,59.69175547
105,Stimuli/Morph105.JPG,Stimuli/Morph105.png,Stimuli/BlurLevel5/BlurEditedMorph105,Stimuli/BlurLevel5/BlurEditedMorph105.png,Stimuli/BlurLevel5/NumberedMorphs/BlurEditedMorph105.png,Stimuli/BlurLevel5/OriginalBlur/BlurEditedMorph105.png,Stimuli/BlurMorphTrio/EditedMorph105.png,None,None,0,1,1,104,,,,,,,,,,,,,,,,,,,,,,,,,,,,,,,73,-100,-100,194,-2.425739316,-0.604804739,105,training,108.5828638,109.076413,108.5828638,109.076413,90.47619048,1575397465,1575397468,3.116653919,146,112,-7,-7,1575397463,1575397465,space,4.879899254,,,,,,,,,,,,,,,,,,,,,,,S1,1,64,M,Expert Radiologist,2019_Dec_03_1223,AdjustEyeTrack,3.1.5,59.69175547
43,Stimuli/Morph43.JPG,Stimuli/Morph43.png,Stimuli/BlurLevel5/BlurEditedMorph43,Stimuli/BlurLevel5/BlurEditedMorph43.png,Stimuli/BlurLevel5/NumberedMorphs/BlurEditedMorph43.png,Stimuli/BlurLevel5/OriginalBlur/BlurEditedMorph43.png,Stimuli/BlurMorphTrio/EditedMorph43.png,010124right.gif,Stimuli/normal_thumbnails/43right.gif,0,2,2,42,,,,,,,,,,,,,,,,,,,,,,,,,,,,,,,38,-100,-100,41,1.886773951,1.640147572,43,training,118.9194142,119.4103369,118.9194142,119.4103369,90.47619048,1575397476,1575397479,3.583540916,114,50,-7,-7,1575397473,1575397476,space,3.736820112,,,,,,,,,,,,,,,,,,,,,,,S1,1,64,M,Expert Radiologist,2019_Dec_03_1223,AdjustEyeTrack,3.1.5,59.69175547
123,Stimuli/Morph123.JPG,Stimuli/Morph123.png,Stimuli/BlurLevel5/BlurEditedMorph123,Stimuli/BlurLevel5/BlurEditedMorph123.png,Stimuli/BlurLevel5/NumberedMorphs/BlurEditedMorph123.png,Stimuli/BlurLevel5/OriginalBlur/BlurEditedMorph123.png,Stimuli/BlurMorphTrio/EditedMorph123.png,None,None,0,3,3,122,,,,,,,,,,,,,,,,,,,,,,,,,,,,,,,25,-100,-100,149,-2.142918252,1.287595187,123,training,128.4487068,128.9430081,128.4487068,128.9430081,68.70748299,1575397485,1575397492,6.90061903,98,100,23,23,1575397483,1575397485,space,2.334715503,,,,,,,,,,,,,,,,,,,,,,,S1,1,64,M,Expert Radiologist,2019_Dec_03_1223,AdjustEyeTrack,3.1.5,59.69175547
139,Stimuli/Morph139.JPG,Stimuli/Morph139.png,Stimuli/BlurLevel5/BlurEditedMorph139,Stimuli/BlurLevel5/BlurEditedMorph139.png,Stimuli/BlurLevel5/NumberedMorphs/BlurEditedMorph139.png,Stimuli/BlurLevel5/OriginalBlur/BlurEditedMorph139.png,Stimuli/BlurMorphTrio/EditedMorph139.png,None,None,0,4,4,138,,,,,,,,,,,,,,,,,,,,,,,,,,,,,,,10,-100,-100,108,-0.772542486,2.377641291,139,training,140.2332117,140.7264698,140.2332117,140.7264698,97.27891156,1575397497,1575397510,12.81738615,77,141,-2,-2,1575397494,1575397497,space,2.425615897,,,,,,,,,,,,,,,,,,,,,,,S1,1,64,M,Expert Radiologist,2019_Dec_03_1223,AdjustEyeTrack,3.1.5,59.69175547
119,Stimuli/Morph119.JPG,Stimuli/Morph119.png,Stimuli/BlurLevel5/BlurEditedMorph119,Stimuli/BlurLevel5/BlurEditedMorph119.png,Stimuli/BlurLevel5/NumberedMorphs/BlurEditedMorph119.png,Stimuli/BlurLevel5/OriginalBlur/BlurEditedMorph119.png,Stimuli/BlurMorphTrio/EditedMorph119.png,None,None,0,5,5,118,,,,,,,,,,,,,,,,,,,,,,,,,,,,,,,39,-100,-100,323,1.996588775,-1.504537558,119,training,158.2608296,158.7592658,158.2608296,158.7592658,78.23129252,1575397515,1575397520,5.51651001,103,103,16,16,1575397512,1575397515,space,5.762157936,,,,,,,,,,,,,,,,,,,,,,,S1,1,64,M,Expert Radiologist,2019_Dec_03_1223,AdjustEyeTrack,3.1.5,59.69175547
93,Stimuli/Morph93.JPG,Stimuli/Morph93.png,Stimuli/BlurLevel5/BlurEditedMorph93,Stimuli/BlurLevel5/BlurEditedMorph93.png,Stimuli/BlurLevel5/NumberedMorphs/BlurEditedMorph93.png,Stimuli/BlurLevel5/OriginalBlur/BlurEditedMorph93.png,Stimuli/BlurMorphTrio/EditedMorph93.png,020280right.gif,Stimuli/normal_thumbnails/93right.gif,0,6,6,92,,,,,,,,,,,,,,,,,,,,,,,,,,,,,,,13,-100,-100,43,1.828384254,1.7049959,93,training,172.4090997,172.9087576,172.4090997,172.9087576,94.55782313,1575397529,1575397534,4.817705154,130,97,-4,-4,1575397526,1575397529,space,3.121111228,,,,,,,,,,,,,,,,,,,,,,,S1,1,64,M,Expert Radiologist,2019_Dec_03_1223,AdjustEyeTrack,3.1.5,59.69175547
135,Stimuli/Morph135.JPG,Stimuli/Morph135.png,Stimuli/BlurLevel5/BlurEditedMorph135,Stimuli/BlurLevel5/BlurEditedMorph135.png,Stimuli/BlurLevel5/NumberedMorphs/BlurEditedMorph135.png,Stimuli/BlurLevel5/OriginalBlur/BlurEditedMorph135.png,Stimuli/BlurMorphTrio/EditedMorph135.png,None,None,0,7,7,134,,,,,,,,,,,,,,,,,,,,,,,,,,,,,,,38,-100,-100,83,0.304673359,2.481365379,135,training,183.2760617,183.7755291,183.2760617,183.7755291,98.63945578,1575397540,1575397544,4.028650045,34,134,1,1,1575397537,1575397540,space,2.602900693,,,,,,,,,,,,,,,,,,,,,,,S1,1,64,M,Expert Radiologist,2019_Dec_03_1223,AdjustEyeTrack,3.1.5,59.69175547
48,Stimuli/Morph48.JPG,Stimuli/Morph48.png,Stimuli/BlurLevel5/BlurEditedMorph48,Stimuli/BlurLevel5/BlurEditedMorph48.png,Stimuli/BlurLevel5/NumberedMorphs/BlurEditedMorph48.png,Stimuli/BlurLevel5/OriginalBlur/BlurEditedMorph48.png,Stimuli/BlurMorphTrio/EditedMorph48.png,010131right.gif,Stimuli/normal_thumbnails/48right.gif,0,8,8,47,,,,,,,,,,,,,,,,,,,,,,,,,,,,,,,94,-100,-100,250,-0.855050358,-2.349231552,48,training,193.1328774,193.6257861,193.1328774,193.6257861,94.55782313,1575397550,1575397552,2.016593933,4,52,-4,-4,1575397547,1575397550,space,3.070956712,,,,,,,,,,,,,,,,,,,,,,,S1,1,64,M,Expert Radiologist,2019_Dec_03_1223,AdjustEyeTrack,3.1.5,59.69175547
124,Stimuli/Morph124.JPG,Stimuli/Morph124.png,Stimuli/BlurLevel5/BlurEditedMorph124,Stimuli/BlurLevel5/BlurEditedMorph124.png,Stimuli/BlurLevel5/NumberedMorphs/BlurEditedMorph124.png,Stimuli/BlurLevel5/OriginalBlur/BlurEditedMorph124.png,Stimuli/BlurMorphTrio/EditedMorph124.png,None,None,0,9,9,123,,,,,,,,,,,,,,,,,,,,,,,,,,,,,,,7,-100,-100,56,1.397982259,2.072593931,124,training,200.4603958,200.9589244,200.4603958,200.9589244,98.63945578,1575397557,1575397560,2.383090973,60,123,1,1,1575397555,1575397557,space,4.492350726,,,,,,,,,,,,,,,,,,,,,,,S1,1,64,M,Expert Radiologist,2019_Dec_03_1223,AdjustEyeTrack,3.1.5,59.69175547
,,,,,,,,,,,,,,,,,,,,,,,,,,,,,,,,,,,,,,,,,,,,,-100,-100,,,,,training,,,,,,,,,,,,,,,,,208.9925432,None,208.9925432,None,208.9925432,None,space,65.2577455,208.9925432,None,,,,,,,,,,,,,S1,1,64,M,Expert Radiologist,2019_Dec_03_1223,AdjustEyeTrack,3.1.5,59.69175547
61,Stimuli/Morph61.JPG,Stimuli/Morph61.png,Stimuli/BlurLevel5/BlurEditedMorph61,Stimuli/BlurLevel5/BlurEditedMorph61.png,Stimuli/BlurLevel5/NumberedMorphs/BlurEditedMorph61.png,Stimuli/BlurLevel5/OriginalBlur/BlurEditedMorph61.png,Stimuli/BlurMorphTrio/EditedMorph61.png,020201right.gif,Stimuli/normal_thumbnails/61right.gif,,,,,0,0,0,0,0,0,0,60,,,,,,,,,,,,,,,,,,,,,,,57,1,1,309,1.573300978,-1.942864904,61,Experiment,,,,,,,,,17,31,30,30,,,,,,,,,,,,,,,275.4949832,276.0078445,275.4949832,276.0078445,59.18367347,1575397632,1575397638,6.249539852,1575397630,1575397632,,,S1,1,64,M,Expert Radiologist,2019_Dec_03_1223,AdjustEyeTrack,3.1.5,59.69175547
53,Stimuli/Morph53.JPG,Stimuli/Morph53.png,Stimuli/BlurLevel5/BlurEditedMorph53,Stimuli/BlurLevel5/BlurEditedMorph53.png,Stimuli/BlurLevel5/NumberedMorphs/BlurEditedMorph53.png,Stimuli/BlurLevel5/OriginalBlur/BlurEditedMorph53.png,Stimuli/BlurMorphTrio/EditedMorph53.png,010149right.gif,Stimuli/normal_thumbnails/53right.gif,,,,,0,0,0,0,0,1,1,52,,,,,,,,,,,,,,,,,,,,,,,94,2,1,140,-1.915111108,1.606969024,53,Experiment,,,,,,,,,9,42,11,11,,,,,,,,,,,,,,,284.4750737,284.9754301,284.4750737,284.9754301,85.03401361,1575397641,1575397643,1.516700268,1575397639,1575397641,,,S1,1,64,M,Expert Radiologist,2019_Dec_03_1223,AdjustEyeTrack,3.1.5,59.69175547
26,Stimuli/Morph26.JPG,Stimuli/Morph26.png,Stimuli/BlurLevel5/BlurEditedMorph26,Stimuli/BlurLevel5/BlurEditedMorph26.png,Stimuli/BlurLevel5/NumberedMorphs/BlurEditedMorph26.png,Stimuli/BlurLevel5/OriginalBlur/BlurEditedMorph26.png,Stimuli/BlurMorphTrio/EditedMorph26.png,010070right.gif,Stimuli/normal_thumbnails/26right.gif,,,,,0,0,0,0,0,2,2,25,,,,,,,,,,,,,,,,,,,,,,,3,3,1,43,1.828384254,1.7049959,26,Experiment,,,,,,,,,91,28,-2,-2,,,,,,,,,,,,,,,288.7376195,289.2405555,288.7376195,289.2405555,97.27891156,1575397645,1575397648,2.867038012,1575397643,1575397645,,,S1,1,64,M,Expert Radiologist,2019_Dec_03_1223,AdjustEyeTrack,3.1.5,59.69175547
145,Stimuli/Morph145.JPG,Stimuli/Morph145.png,Stimuli/BlurLevel5/BlurEditedMorph145,Stimuli/BlurLevel5/BlurEditedMorph145.png,Stimuli/BlurLevel5/NumberedMorphs/BlurEditedMorph145.png,Stimuli/BlurLevel5/OriginalBlur/BlurEditedMorph145.png,Stimuli/BlurMorphTrio/EditedMorph145.png,None,None,,,,,0,0,0,0,0,3,3,144,,,,,,,,,,,,,,,,,,,,,,,100,4,1,268,-0.087248742,-2.498477068,145,Experiment,,,,,,,,,52,130,15,15,,,,,,,,,,,,,,,294.0744797,294.5745047,294.0744797,294.5745047,79.59183673,1575397651,1575397653,2.549790144,1575397649,1575397651,,,S1,1,64,M,Expert Radiologist,2019_Dec_03_1223,AdjustEyeTrack,3.1.5,59.69175547
43,Stimuli/Morph43.JPG,Stimuli/Morph43.png,Stimuli/BlurLevel5/BlurEditedMorph43,Stimuli/BlurLevel5/BlurEditedMorph43.png,Stimuli/BlurLevel5/NumberedMorphs/BlurEditedMorph43.png,Stimuli/BlurLevel5/OriginalBlur/BlurEditedMorph43.png,Stimuli/BlurMorphTrio/EditedMorph43.png,010124right.gif,Stimuli/normal_thumbnails/43right.gif,,,,,0,0,0,0,0,4,4,42,,,,,,,,,,,,,,,,,,,,,,,17,5,1,172,-2.475670172,0.347932752,43,Experiment,,,,,,,,,106,41,2,2,,,,,,,,,,,,,,,299.6624672,300.1579461,299.6624672,300.1579461,97.27891156,1575397656,1575397659,2.32805109,1575397654,1575397656,,,S1,1,64,M,Expert Radiologist,2019_Dec_03_1223,AdjustEyeTrack,3.1.5,59.69175547
68,Stimuli/Morph68.JPG,Stimuli/Morph68.png,Stimuli/BlurLevel5/BlurEditedMorph68,Stimuli/BlurLevel5/BlurEditedMorph68.png,Stimuli/BlurLevel5/NumberedMorphs/BlurEditedMorph68.png,Stimuli/BlurLevel5/OriginalBlur/BlurEditedMorph68.png,Stimuli/BlurMorphTrio/EditedMorph68.png,020218right.gif,Stimuli/normal_thumbnails/68right.gif,,,,,0,0,0,0,0,5,5,67,,,,,,,,,,,,,,,,,,,,,,,86,6,1,276,0.261321158,-2.486304738,68,Experiment,,,,,,,,,138,47,21,21,,,,,,,,,,,,,,,304.895364,305.3902704,304.895364,305.3902704,71.42857143,1575397662,1575397665,2.935699224,1575397659,1575397662,,,S1,1,64,M,Expert Radiologist,2019_Dec_03_1223,AdjustEyeTrack,3.1.5,59.69175547
85,Stimuli/Morph85.JPG,Stimuli/Morph85.png,Stimuli/BlurLevel5/BlurEditedMorph85,Stimuli/BlurLevel5/BlurEditedMorph85.png,Stimuli/BlurLevel5/NumberedMorphs/BlurEditedMorph85.png,Stimuli/BlurLevel5/OriginalBlur/BlurEditedMorph85.png,Stimuli/BlurMorphTrio/EditedMorph85.png,020264right.gif,Stimuli/normal_thumbnails/85right.gif,,,,,0,0,0,0,0,6,6,84,,,,,,,,,,,,,,,,,,,,,,,17,7,1,191,-2.454067959,-0.477022488,85,Experiment,,,,,,,,,24,104,-19,-19,,,,,,,,,,,,,,,310.513057,311.0074148,310.513057,311.0074148,74.14965986,1575397667,1575397670,2.349593163,1575397665,1575397667,,,S1,1,64,M,Expert Radiologist,2019_Dec_03_1223,AdjustEyeTrack,3.1.5,59.69175547
141,Stimuli/Morph141.JPG,Stimuli/Morph141.png,Stimuli/BlurLevel5/BlurEditedMorph141,Stimuli/BlurLevel5/BlurEditedMorph141.png,Stimuli/BlurLevel5/NumberedMorphs/BlurEditedMorph141.png,Stimuli/BlurLevel5/OriginalBlur/BlurEditedMorph141.png,Stimuli/BlurMorphTrio/EditedMorph141.png,None,None,,,,,0,0,0,0,0,7,7,140,,,,,,,,,,,,,,,,,,,,,,,29,8,1,197,-2.39076189,-0.730929262,141,Experiment,,,,,,,,,80,144,-3,-3,,,,,,,,,,,,,,,315.5815434,316.0744979,315.5815434,316.0744979,95.91836735,1575397672,1575397674,1.883124828,1575397670,1575397672,,,S1,1,64,M,Expert Radiologist,2019_Dec_03_1223,AdjustEyeTrack,3.1.5,59.69175547
135,Stimuli/Morph135.JPG,Stimuli/Morph135.png,Stimuli/BlurLevel5/BlurEditedMorph135,Stimuli/BlurLevel5/BlurEditedMorph135.png,Stimuli/BlurLevel5/NumberedMorphs/BlurEditedMorph135.png,Stimuli/BlurLevel5/OriginalBlur/BlurEditedMorph135.png,Stimuli/BlurMorphTrio/EditedMorph135.png,None,None,,,,,0,0,0,0,0,8,8,134,,,,,,,,,,,,,,,,,,,,,,,10,9,1,243,-1.134976249,-2.22751631,135,Experiment,,,,,,,,,145,121,14,14,,,,,,,,,,,,,,,320.2515715,320.7909377,320.2515715,320.7909377,80.95238095,1575397677,1575397681,4.150025129,1575397674,1575397677,,,S1,1,64,M,Expert Radiologist,2019_Dec_03_1223,AdjustEyeTrack,3.1.5,59.69175547
72,Stimuli/Morph72.JPG,Stimuli/Morph72.png,Stimuli/BlurLevel5/BlurEditedMorph72,Stimuli/BlurLevel5/BlurEditedMorph72.png,Stimuli/BlurLevel5/NumberedMorphs/BlurEditedMorph72.png,Stimuli/BlurLevel5/OriginalBlur/BlurEditedMorph72.png,Stimuli/BlurMorphTrio/EditedMorph72.png,020227right.gif,Stimuli/normal_thumbnails/72right.gif,,,,,0,0,0,0,0,9,9,71,,,,,,,,,,,,,,,,,,,,,,,91,10,1,150,-2.165063509,1.25,72,Experiment,,,,,,,,,18,102,-30,-30,,,,,,,,,,,,,,,327.3914553,327.8907957,327.3914553,327.8907957,59.18367347,1575397684,1575397686,2.349967003,1575397681,1575397684,,,S1,1,64,M,Expert Radiologist,2019_Dec_03_1223,AdjustEyeTrack,3.1.5,59.69175547
74,Stimuli/Morph74.JPG,Stimuli/Morph74.png,Stimuli/BlurLevel5/BlurEditedMorph74,Stimuli/BlurLevel5/BlurEditedMorph74.png,Stimuli/BlurLevel5/NumberedMorphs/BlurEditedMorph74.png,Stimuli/BlurLevel5/OriginalBlur/BlurEditedMorph74.png,Stimuli/BlurMorphTrio/EditedMorph74.png,020232right.gif,Stimuli/normal_thumbnails/74right.gif,,,,,0,0,0,0,0,10,10,73,,,,,,,,,,,,,,,,,,,,,,,27,11,1,234,-1.469463131,-2.022542486,74,Experiment,,,,,,,,,143,107,-33,-33,,,,,,,,,,,,,,,332.5463314,333.0401718,332.5463314,333.0401718,55.10204082,1575397689,1575397693,3.884593964,1575397687,1575397689,,,S1,1,64,M,Expert Radiologist,2019_Dec_03_1223,AdjustEyeTrack,3.1.5,59.69175547
59,Stimuli/Morph59.JPG,Stimuli/Morph59.png,Stimuli/BlurLevel5/BlurEditedMorph59,Stimuli/BlurLevel5/BlurEditedMorph59.png,Stimuli/BlurLevel5/NumberedMorphs/BlurEditedMorph59.png,Stimuli/BlurLevel5/OriginalBlur/BlurEditedMorph59.png,Stimuli/BlurMorphTrio/EditedMorph59.png,010160right.gif,Stimuli/normal_thumbnails/59right.gif,,,,,0,0,0,0,0,11,11,58,,,,,,,,,,,,,,,,,,,,,,,70,12,1,184,-2.493910126,-0.174391184,59,Experiment,,,,,,,,,26,48,11,11,,,,,,,,,,,,,,,339.0582091,339.5576468,339.0582091,339.5576468,85.03401361,1575397696,1575397702,5.806439877,1575397693,1575397696,,,S1,1,64,M,Expert Radiologist,2019_Dec_03_1223,AdjustEyeTrack,3.1.5,59.69175547
46,Stimuli/Morph46.JPG,Stimuli/Morph46.png,Stimuli/BlurLevel5/BlurEditedMorph46,Stimuli/BlurLevel5/BlurEditedMorph46.png,Stimuli/BlurLevel5/NumberedMorphs/BlurEditedMorph46.png,Stimuli/BlurLevel5/OriginalBlur/BlurEditedMorph46.png,Stimuli/BlurMorphTrio/EditedMorph46.png,010128right.gif,Stimuli/normal_thumbnails/46right.gif,,,,,0,0,0,0,0,12,12,45,,,,,,,,,,,,,,,,,,,,,,,78,13,1,213,-2.09667642,-1.361597588,46,Experiment,,,,,,,,,26,53,-7,-7,,,,,,,,,,,,,,,347.2128223,347.7071134,347.2128223,347.7071134,90.47619048,1575397704,1575397706,1.598477125,1575397702,1575397704,,,S1,1,64,M,Expert Radiologist,2019_Dec_03_1223,AdjustEyeTrack,3.1.5,59.69175547
121,Stimuli/Morph121.JPG,Stimuli/Morph121.png,Stimuli/BlurLevel5/BlurEditedMorph121,Stimuli/BlurLevel5/BlurEditedMorph121.png,Stimuli/BlurLevel5/NumberedMorphs/BlurEditedMorph121.png,Stimuli/BlurLevel5/OriginalBlur/BlurEditedMorph121.png,Stimuli/BlurMorphTrio/EditedMorph121.png,None,None,,,,,0,0,0,0,0,13,13,120,,,,,,,,,,,,,,,,,,,,,,,23,14,1,200,-2.349231552,-0.855050358,121,Experiment,,,,,,,,,110,110,11,11,,,,,,,,,,,,,,,351.6969098,352.1904632,351.6969098,352.1904632,85.03401361,1575397708,1575397709,1.065285921,1575397706,1575397708,,,S1,1,64,M,Expert Radiologist,2019_Dec_03_1223,AdjustEyeTrack,3.1.5,59.69175547
8,Stimuli/Morph8.JPG,Stimuli/Morph8.png,Stimuli/BlurLevel5/BlurEditedMorph8,Stimuli/BlurLevel5/BlurEditedMorph8.png,Stimuli/BlurLevel5/NumberedMorphs/BlurEditedMorph8.png,Stimuli/BlurLevel5/OriginalBlur/BlurEditedMorph8.png,Stimuli/BlurMorphTrio/EditedMorph8.png,010014right.gif,Stimuli/normal_thumbnails/8right.gif,,,,,0,0,0,0,0,14,14,7,,,,,,,,,,,,,,,,,,,,,,,61,15,1,34,2.072593931,1.397982259,8,Experiment,,,,,,,,,27,27,-19,-19,,,,,,,,,,,,,,,355.3699327,355.8735889,355.3699327,355.8735889,74.14965986,1575397712,1575397713,0.918971062,1575397710,1575397712,,,S1,1,64,M,Expert Radiologist,2019_Dec_03_1223,AdjustEyeTrack,3.1.5,59.69175547
34,Stimuli/Morph34.JPG,Stimuli/Morph34.png,Stimuli/BlurLevel5/BlurEditedMorph34,Stimuli/BlurLevel5/BlurEditedMorph34.png,Stimuli/BlurLevel5/NumberedMorphs/BlurEditedMorph34.png,Stimuli/BlurLevel5/OriginalBlur/BlurEditedMorph34.png,Stimuli/BlurMorphTrio/EditedMorph34.png,010090right.gif,Stimuli/normal_thumbnails/34right.gif,,,,,0,0,0,0,0,15,15,33,,,,,,,,,,,,,,,,,,,,,,,100,16,1,248,-0.936516484,-2.317959636,34,Experiment,,,,,,,,,72,16,18,18,,,,,,,,,,,,,,,358.7654273,359.2566566,358.7654273,359.2566566,75.51020408,1575397715,1575397718,2.582347155,1575397713,1575397715,,,S1,1,64,M,Expert Radiologist,2019_Dec_03_1223,AdjustEyeTrack,3.1.5,59.69175547
41,Stimuli/Morph41.JPG,Stimuli/Morph41.png,Stimuli/BlurLevel5/BlurEditedMorph41,Stimuli/BlurLevel5/BlurEditedMorph41.png,Stimuli/BlurLevel5/NumberedMorphs/BlurEditedMorph41.png,Stimuli/BlurLevel5/OriginalBlur/BlurEditedMorph41.png,Stimuli/BlurMorphTrio/EditedMorph41.png,010112right.gif,Stimuli/normal_thumbnails/41right.gif,,,,,0,0,0,0,0,16,16,40,,,,,,,,,,,,,,,,,,,,,,,75,17,1,209,-2.186549268,-1.212024051,41,Experiment,,,,,,,,,145,28,13,13,,,,,,,,,,,,,,,363.6741962,364.17342,363.6741962,364.17342,82.31292517,1575397720,1575397722,1.683699131,1575397718,1575397720,,,S1,1,64,M,Expert Radiologist,2019_Dec_03_1223,AdjustEyeTrack,3.1.5,59.69175547
138,Stimuli/Morph138.JPG,Stimuli/Morph138.png,Stimuli/BlurLevel5/BlurEditedMorph138,Stimuli/BlurLevel5/BlurEditedMorph138.png,Stimuli/BlurLevel5/NumberedMorphs/BlurEditedMorph138.png,Stimuli/BlurLevel5/OriginalBlur/BlurEditedMorph138.png,Stimuli/BlurMorphTrio/EditedMorph138.png,None,None,,,,,0,0,0,0,0,17,17,137,,,,,,,,,,,,,,,,,,,,,,,1,18,1,164,-2.40315424,0.68909339,138,Experiment,,,,,,,,,91,146,-8,-8,,,,,,,,,,,,,,,367.3074638,367.8065983,367.3074638,367.8065983,89.11564626,1575397724,1575397726,1.633312941,1575397722,1575397724,,,S1,1,64,M,Expert Radiologist,2019_Dec_03_1223,AdjustEyeTrack,3.1.5,59.69175547
33,Stimuli/Morph33.JPG,Stimuli/Morph33.png,Stimuli/BlurLevel5/BlurEditedMorph33,Stimuli/BlurLevel5/BlurEditedMorph33.png,Stimuli/BlurLevel5/NumberedMorphs/BlurEditedMorph33.png,Stimuli/BlurLevel5/OriginalBlur/BlurEditedMorph33.png,Stimuli/BlurMorphTrio/EditedMorph33.png,010089right.gif,Stimuli/normal_thumbnails/33right.gif,,,,,0,0,0,0,0,18,18,32,,,,,,,,,,,,,,,,,,,,,,,7,19,1,256,-0.604804739,-2.425739316,33,Experiment,,,,,,,,,124,23,10,10,,,,,,,,,,,,,,,371.4825949,371.9733308,371.4825949,371.9733308,86.39455782,1575397728,1575397731,2.733758926,1575397726,1575397728,,,S1,1,64,M,Expert Radiologist,2019_Dec_03_1223,AdjustEyeTrack,3.1.5,59.69175547
118,Stimuli/Morph118.JPG,Stimuli/Morph118.png,Stimuli/BlurLevel5/BlurEditedMorph118,Stimuli/BlurLevel5/BlurEditedMorph118.png,Stimuli/BlurLevel5/NumberedMorphs/BlurEditedMorph118.png,Stimuli/BlurLevel5/OriginalBlur/BlurEditedMorph118.png,Stimuli/BlurMorphTrio/EditedMorph118.png,None,None,,,,,0,0,0,0,0,19,19,117,,,,,,,,,,,,,,,,,,,,,,,56,20,1,90,1.53E-16,2.5,118,Experiment,,,,,,,,,123,101,17,17,,,,,,,,,,,,,,,377.1907759,377.6908346,377.1907759,377.6908346,76.8707483,1575397734,1575397741,7.132946968,1575397731,1575397734,,,S1,1,64,M,Expert Radiologist,2019_Dec_03_1223,AdjustEyeTrack,3.1.5,59.69175547
52,Stimuli/Morph52.JPG,Stimuli/Morph52.png,Stimuli/BlurLevel5/BlurEditedMorph52,Stimuli/BlurLevel5/BlurEditedMorph52.png,Stimuli/BlurLevel5/NumberedMorphs/BlurEditedMorph52.png,Stimuli/BlurLevel5/OriginalBlur/BlurEditedMorph52.png,Stimuli/BlurMorphTrio/EditedMorph52.png,010148right.gif,Stimuli/normal_thumbnails/52right.gif,,,,,0,0,0,0,0,20,20,51,,,,,,,,,,,,,,,,,,,,,,,76,21,1,182,-2.498477068,-0.087248742,52,Experiment,,,,,,,,,145,43,9,9,,,,,,,,,,,,,,,386.6994131,387.1901701,386.6994131,387.1901701,87.75510204,1575397743,1575397745,2.017125845,1575397741,1575397743,,,S1,1,64,M,Expert Radiologist,2019_Dec_03_1223,AdjustEyeTrack,3.1.5,59.69175547
143,Stimuli/Morph143.JPG,Stimuli/Morph143.png,Stimuli/BlurLevel5/BlurEditedMorph143,Stimuli/BlurLevel5/BlurEditedMorph143.png,Stimuli/BlurLevel5/NumberedMorphs/BlurEditedMorph143.png,Stimuli/BlurLevel5/OriginalBlur/BlurEditedMorph143.png,Stimuli/BlurMorphTrio/EditedMorph143.png,None,None,,,,,0,0,0,0,0,21,21,142,,,,,,,,,,,,,,,,,,,,,,,78,22,1,115,-1.056545654,2.265769468,143,Experiment,,,,,,,,,118,3,140,-7,,,,,,,,,,,,,,,391.1069864,391.6066251,391.1069864,391.6066251,90.47619048,1575397748,1575397749,1.532941103,1575397746,1575397748,,,S1,1,64,M,Expert Radiologist,2019_Dec_03_1223,AdjustEyeTrack,3.1.5,59.69175547
38,Stimuli/Morph38.JPG,Stimuli/Morph38.png,Stimuli/BlurLevel5/BlurEditedMorph38,Stimuli/BlurLevel5/BlurEditedMorph38.png,Stimuli/BlurLevel5/NumberedMorphs/BlurEditedMorph38.png,Stimuli/BlurLevel5/OriginalBlur/BlurEditedMorph38.png,Stimuli/BlurMorphTrio/EditedMorph38.png,010108right.gif,Stimuli/normal_thumbnails/38right.gif,,,,,0,0,0,0,0,22,22,37,,,,,,,,,,,,,,,,,,,,,,,84,23,1,230,-1.606969024,-1.915111108,38,Experiment,,,,,,,,,133,31,7,7,,,,,,,,,,,,,,,395.2313186,395.7234238,395.2313186,395.7234238,90.47619048,1575397752,1575397755,2.684068918,1575397750,1575397752,,,S1,1,64,M,Expert Radiologist,2019_Dec_03_1223,AdjustEyeTrack,3.1.5,59.69175547
63,Stimuli/Morph63.JPG,Stimuli/Morph63.png,Stimuli/BlurLevel5/BlurEditedMorph63,Stimuli/BlurLevel5/BlurEditedMorph63.png,Stimuli/BlurLevel5/NumberedMorphs/BlurEditedMorph63.png,Stimuli/BlurLevel5/OriginalBlur/BlurEditedMorph63.png,Stimuli/BlurMorphTrio/EditedMorph63.png,020206right.gif,Stimuli/normal_thumbnails/63right.gif,,,,,0,0,0,0,0,23,23,62,,,,,,,,,,,,,,,,,,,,,,,30,24,1,38,1.970026884,1.539153688,63,Experiment,,,,,,,,,81,43,20,20,,,,,,,,,,,,,,,400.6395516,401.1399596,400.6395516,401.1399596,72.78911565,1575397757,1575397764,6.867621899,1575397755,1575397757,,,S1,1,64,M,Expert Radiologist,2019_Dec_03_1223,AdjustEyeTrack,3.1.5,59.69175547
45,Stimuli/Morph45.JPG,Stimuli/Morph45.png,Stimuli/BlurLevel5/BlurEditedMorph45,Stimuli/BlurLevel5/BlurEditedMorph45.png,Stimuli/BlurLevel5/NumberedMorphs/BlurEditedMorph45.png,Stimuli/BlurLevel5/OriginalBlur/BlurEditedMorph45.png,Stimuli/BlurMorphTrio/EditedMorph45.png,010127right.gif,Stimuli/normal_thumbnails/45right.gif,,,,,0,0,0,0,0,24,24,44,,,,,,,,,,,,,,,,,,,,,,,4,25,1,12,2.445369002,0.519779227,45,Experiment,,,,,,,,,17,46,-1,-1,,,,,,,,,,,,,,,410.694185,411.1898591,410.694185,411.1898591,98.63945578,1575397767,1575397769,1.43662405,1575397764,1575397767,,,S1,1,64,M,Expert Radiologist,2019_Dec_03_1223,AdjustEyeTrack,3.1.5,59.69175547
18,Stimuli/Morph18.JPG,Stimuli/Morph18.png,Stimuli/BlurLevel5/BlurEditedMorph18,Stimuli/BlurLevel5/BlurEditedMorph18.png,Stimuli/BlurLevel5/NumberedMorphs/BlurEditedMorph18.png,Stimuli/BlurLevel5/OriginalBlur/BlurEditedMorph18.png,Stimuli/BlurMorphTrio/EditedMorph18.png,010039right.gif,Stimuli/normal_thumbnails/18right.gif,,,,,0,0,0,0,0,25,25,17,,,,,,,,,,,,,,,,,,,,,,,9,26,1,273,0.130839891,-2.496573837,18,Experiment,,,,,,,,,32,23,-5,-5,,,,,,,,,,,,,,,414.3982019,414.8893869,414.3982019,414.8893869,93.19727891,1575397771,1575397775,3.667867184,1575397769,1575397771,,,S1,1,64,M,Expert Radiologist,2019_Dec_03_1223,AdjustEyeTrack,3.1.5,59.69175547
123,Stimuli/Morph123.JPG,Stimuli/Morph123.png,Stimuli/BlurLevel5/BlurEditedMorph123,Stimuli/BlurLevel5/BlurEditedMorph123.png,Stimuli/BlurLevel5/NumberedMorphs/BlurEditedMorph123.png,Stimuli/BlurLevel5/OriginalBlur/BlurEditedMorph123.png,Stimuli/BlurMorphTrio/EditedMorph123.png,None,None,,,,,0,0,0,0,0,26,26,122,,,,,,,,,,,,,,,,,,,,,,,50,27,1,82,0.347932752,2.475670172,123,Experiment,,,,,,,,,107,131,-8,-8,,,,,,,,,,,,,,,420.733414,421.2388301,420.733414,421.2388301,89.11564626,1575397777,1575397783,5.166702747,1575397775,1575397777,,,S1,1,64,M,Expert Radiologist,2019_Dec_03_1223,AdjustEyeTrack,3.1.5,59.69175547
98,Stimuli/Morph98.JPG,Stimuli/Morph98.png,Stimuli/BlurLevel5/BlurEditedMorph98,Stimuli/BlurLevel5/BlurEditedMorph98.png,Stimuli/BlurLevel5/NumberedMorphs/BlurEditedMorph98.png,Stimuli/BlurLevel5/OriginalBlur/BlurEditedMorph98.png,Stimuli/BlurMorphTrio/EditedMorph98.png,020298right.gif,Stimuli/normal_thumbnails/98right.gif,,,,,0,0,0,0,0,27,27,97,,,,,,,,,,,,,,,,,,,,,,,47,28,1,115,-1.056545654,2.265769468,98,Experiment,,,,,,,,,15,101,-3,-3,,,,,,,,,,,,,,,428.7620724,429.2558634,428.7620724,429.2558634,95.91836735,1575397785,1575397789,3.349503994,1575397783,1575397785,,,S1,1,64,M,Expert Radiologist,2019_Dec_03_1223,AdjustEyeTrack,3.1.5,59.69175547
14,Stimuli/Morph14.JPG,Stimuli/Morph14.png,Stimuli/BlurLevel5/BlurEditedMorph14,Stimuli/BlurLevel5/BlurEditedMorph14.png,Stimuli/BlurLevel5/NumberedMorphs/BlurEditedMorph14.png,Stimuli/BlurLevel5/OriginalBlur/BlurEditedMorph14.png,Stimuli/BlurMorphTrio/EditedMorph14.png,010030right.gif,Stimuli/normal_thumbnails/14right.gif,,,,,0,0,0,0,0,28,28,13,,,,,,,,,,,,,,,,,,,,,,,26,29,1,294,1.016841608,-2.283863644,14,Experiment,,,,,,,,,70,28,-14,-14,,,,,,,,,,,,,,,434.7898455,435.2881653,434.7898455,435.2881653,80.95238095,1575397792,1575397794,2.465444088,1575397789,1575397791,,,S1,1,64,M,Expert Radiologist,2019_Dec_03_1223,AdjustEyeTrack,3.1.5,59.69175547
105,Stimuli/Morph105.JPG,Stimuli/Morph105.png,Stimuli/BlurLevel5/BlurEditedMorph105,Stimuli/BlurLevel5/BlurEditedMorph105.png,Stimuli/BlurLevel5/NumberedMorphs/BlurEditedMorph105.png,Stimuli/BlurLevel5/OriginalBlur/BlurEditedMorph105.png,Stimuli/BlurMorphTrio/EditedMorph105.png,None,None,,,,,0,0,0,0,0,29,29,104,,,,,,,,,,,,,,,,,,,,,,,89,30,1,18,2.377641291,0.772542486,105,Experiment,,,,,,,,,22,133,-28,-28,,,,,,,,,,,,,,,440.1253393,440.6225335,440.1253393,440.6225335,61.9047619,1575397797,1575397800,2.733517885,1575397794,1575397797,,,S1,1,64,M,Expert Radiologist,2019_Dec_03_1223,AdjustEyeTrack,3.1.5,59.69175547
37,Stimuli/Morph37.JPG,Stimuli/Morph37.png,Stimuli/BlurLevel5/BlurEditedMorph37,Stimuli/BlurLevel5/BlurEditedMorph37.png,Stimuli/BlurLevel5/NumberedMorphs/BlurEditedMorph37.png,Stimuli/BlurLevel5/OriginalBlur/BlurEditedMorph37.png,Stimuli/BlurMorphTrio/EditedMorph37.png,010097right.gif,Stimuli/normal_thumbnails/37right.gif,,,,,0,0,0,0,0,30,30,36,,,,,,,,,,,,,,,,,,,,,,,81,31,1,158,-2.317959636,0.936516484,37,Experiment,,,,,,,,,101,30,7,7,,,,,,,,,,,,,,,445.522925,446.0218503,445.522925,446.0218503,90.47619048,1575397802,1575397804,2.167361021,1575397800,1575397802,,,S1,1,64,M,Expert Radiologist,2019_Dec_03_1223,AdjustEyeTrack,3.1.5,59.69175547
108,Stimuli/Morph108.JPG,Stimuli/Morph108.png,Stimuli/BlurLevel5/BlurEditedMorph108,Stimuli/BlurLevel5/BlurEditedMorph108.png,Stimuli/BlurLevel5/NumberedMorphs/BlurEditedMorph108.png,Stimuli/BlurLevel5/OriginalBlur/BlurEditedMorph108.png,Stimuli/BlurMorphTrio/EditedMorph108.png,None,None,,,,,0,0,0,0,0,31,31,107,,,,,,,,,,,,,,,,,,,,,,,72,32,1,309,1.573300978,-1.942864904,108,Experiment,,,,,,,,,90,90,18,18,,,,,,,,,,,,,,,450.5243242,451.0221272,450.5243242,451.0221272,75.51020408,1575397807,1575397808,0.882969856,1575397805,1575397807,,,S1,1,64,M,Expert Radiologist,2019_Dec_03_1223,AdjustEyeTrack,3.1.5,59.69175547
32,Stimuli/Morph32.JPG,Stimuli/Morph32.png,Stimuli/BlurLevel5/BlurEditedMorph32,Stimuli/BlurLevel5/BlurEditedMorph32.png,Stimuli/BlurLevel5/NumberedMorphs/BlurEditedMorph32.png,Stimuli/BlurLevel5/OriginalBlur/BlurEditedMorph32.png,Stimuli/BlurMorphTrio/EditedMorph32.png,010080right.gif,Stimuli/normal_thumbnails/32right.gif,,,,,0,0,0,0,0,32,32,31,,,,,,,,,,,,,,,,,,,,,,,89,33,1,152,-2.207368982,1.173678907,32,Experiment,,,,,,,,,127,24,8,8,,,,,,,,,,,,,,,453.8408735,454.3384238,453.8408735,454.3384238,89.11564626,1575397811,1575397812,1.88339901,1575397808,1575397811,,,S1,1,64,M,Expert Radiologist,2019_Dec_03_1223,AdjustEyeTrack,3.1.5,59.69175547
94,Stimuli/Morph94.JPG,Stimuli/Morph94.png,Stimuli/BlurLevel5/BlurEditedMorph94,Stimuli/BlurLevel5/BlurEditedMorph94.png,Stimuli/BlurLevel5/NumberedMorphs/BlurEditedMorph94.png,Stimuli/BlurLevel5/OriginalBlur/BlurEditedMorph94.png,Stimuli/BlurMorphTrio/EditedMorph94.png,020286right.gif,Stimuli/normal_thumbnails/94right.gif,,,,,0,0,0,0,0,33,33,93,,,,,,,,,,,,,,,,,,,,,,,31,34,1,67,0.976827821,2.301262134,94,Experiment,,,,,,,,,51,127,-33,-33,,,,,,,,,,,,,,,458.3894698,458.8887592,458.3894698,458.8887592,55.10204082,1575397815,1575397817,2.050675869,1575397813,1575397815,,,S1,1,64,M,Expert Radiologist,2019_Dec_03_1223,AdjustEyeTrack,3.1.5,59.69175547
127,Stimuli/Morph127.JPG,Stimuli/Morph127.png,Stimuli/BlurLevel5/BlurEditedMorph127,Stimuli/BlurLevel5/BlurEditedMorph127.png,Stimuli/BlurLevel5/NumberedMorphs/BlurEditedMorph127.png,Stimuli/BlurLevel5/OriginalBlur/BlurEditedMorph127.png,Stimuli/BlurMorphTrio/EditedMorph127.png,None,None,,,,,0,0,0,0,0,34,34,126,,,,,,,,,,,,,,,,,,,,,,,43,35,1,219,-1.942864904,-1.573300978,127,Experiment,,,,,,,,,99,122,5,5,,,,,,,,,,,,,,,463.0909552,463.5888104,463.0909552,463.5888104,93.19727891,1575397820,1575397821,1.266394854,1575397817,1575397820,,,S1,1,64,M,Expert Radiologist,2019_Dec_03_1223,AdjustEyeTrack,3.1.5,59.69175547
91,Stimuli/Morph91.JPG,Stimuli/Morph91.png,Stimuli/BlurLevel5/BlurEditedMorph91,Stimuli/BlurLevel5/BlurEditedMorph91.png,Stimuli/BlurLevel5/NumberedMorphs/BlurEditedMorph91.png,Stimuli/BlurLevel5/OriginalBlur/BlurEditedMorph91.png,Stimuli/BlurMorphTrio/EditedMorph91.png,020276right.gif,Stimuli/normal_thumbnails/91right.gif,,,,,0,0,0,0,0,35,35,90,,,,,,,,,,,,,,,,,,,,,,,23,36,1,90,1.53E-16,2.5,91,Experiment,,,,,,,,,71,95,-4,-4,,,,,,,,,,,,,,,467.1220208,467.6219278,467.1220208,467.6219278,94.55782313,1575397824,1575397825,1.415436029,1575397821,1575397824,,,S1,1,64,M,Expert Radiologist,2019_Dec_03_1223,AdjustEyeTrack,3.1.5,59.69175547
6,Stimuli/Morph6.JPG,Stimuli/Morph6.png,Stimuli/BlurLevel5/BlurEditedMorph6,Stimuli/BlurLevel5/BlurEditedMorph6.png,Stimuli/BlurLevel5/NumberedMorphs/BlurEditedMorph6.png,Stimuli/BlurLevel5/OriginalBlur/BlurEditedMorph6.png,Stimuli/BlurMorphTrio/EditedMorph6.png,010012right.gif,Stimuli/normal_thumbnails/6right.gif,,,,,0,0,0,0,0,36,36,5,,,,,,,,,,,,,,,,,,,,,,,1,37,1,143,-1.996588775,1.504537558,6,Experiment,,,,,,,,,65,131,-125,22,,,,,,,,,,,,,,,470.4752135,470.9719347,470.4752135,470.9719347,70.06802721,1575397827,1575397829,1.982899904,1575397826,1575397827,,,S1,1,64,M,Expert Radiologist,2019_Dec_03_1223,AdjustEyeTrack,3.1.5,59.69175547
55,Stimuli/Morph55.JPG,Stimuli/Morph55.png,Stimuli/BlurLevel5/BlurEditedMorph55,Stimuli/BlurLevel5/BlurEditedMorph55.png,Stimuli/BlurLevel5/NumberedMorphs/BlurEditedMorph55.png,Stimuli/BlurLevel5/OriginalBlur/BlurEditedMorph55.png,Stimuli/BlurMorphTrio/EditedMorph55.png,010151right.gif,Stimuli/normal_thumbnails/55right.gif,,,,,0,0,0,0,0,37,37,54,,,,,,,,,,,,,,,,,,,,,,,4,38,1,178,-2.498477068,0.087248742,55,Experiment,,,,,,,,,18,50,5,5,,,,,,,,,,,,,,,475.4263391,475.9219637,475.4263391,475.9219637,93.19727891,1575397832,1575397833,1.349436998,1575397829,1575397832,,,S1,1,64,M,Expert Radiologist,2019_Dec_03_1223,AdjustEyeTrack,3.1.5,59.69175547
142,Stimuli/Morph142.JPG,Stimuli/Morph142.png,Stimuli/BlurLevel5/BlurEditedMorph142,Stimuli/BlurLevel5/BlurEditedMorph142.png,Stimuli/BlurLevel5/NumberedMorphs/BlurEditedMorph142.png,Stimuli/BlurLevel5/OriginalBlur/BlurEditedMorph142.png,Stimuli/BlurMorphTrio/EditedMorph142.png,None,None,,,,,0,0,0,0,0,38,38,141,,,,,,,,,,,,,,,,,,,,,,,86,39,1,52,1.539153688,1.970026884,142,Experiment,,,,,,,,,123,123,19,19,,,,,,,,,,,,,,,479.2612053,479.7555934,479.2612053,479.7555934,74.14965986,1575397836,1575397837,0.900180101,1575397834,1575397836,,,S1,1,64,M,Expert Radiologist,2019_Dec_03_1223,AdjustEyeTrack,3.1.5,59.69175547
62,Stimuli/Morph62.JPG,Stimuli/Morph62.png,Stimuli/BlurLevel5/BlurEditedMorph62,Stimuli/BlurLevel5/BlurEditedMorph62.png,Stimuli/BlurLevel5/NumberedMorphs/BlurEditedMorph62.png,Stimuli/BlurLevel5/OriginalBlur/BlurEditedMorph62.png,Stimuli/BlurMorphTrio/EditedMorph62.png,020205right.gif,Stimuli/normal_thumbnails/62right.gif,,,,,0,0,0,0,0,39,39,61,,,,,,,,,,,,,,,,,,,,,,,94,40,1,42,1.857862064,1.672826516,62,Experiment,,,,,,,,,92,42,20,20,,,,,,,,,,,,,,,482.9798881,483.4722824,482.9798881,483.4722824,72.78911565,1575397840,1575397842,2.599989891,1575397837,1575397840,,,S1,1,64,M,Expert Radiologist,2019_Dec_03_1223,AdjustEyeTrack,3.1.5,59.69175547
60,Stimuli/Morph60.JPG,Stimuli/Morph60.png,Stimuli/BlurLevel5/BlurEditedMorph60,Stimuli/BlurLevel5/BlurEditedMorph60.png,Stimuli/BlurLevel5/NumberedMorphs/BlurEditedMorph60.png,Stimuli/BlurLevel5/OriginalBlur/BlurEditedMorph60.png,Stimuli/BlurMorphTrio/EditedMorph60.png,020200right.gif,Stimuli/normal_thumbnails/60right.gif,,,,,0,0,0,0,0,40,40,59,,,,,,,,,,,,,,,,,,,,,,,50,41,1,261,-0.391086163,-2.469220851,60,Experiment,,,,,,,,,98,48,12,12,,,,,,,,,,,,,,,488.1563095,488.6551881,488.1563095,488.6551881,83.67346939,1575397845,1575397847,2.383276224,1575397843,1575397845,,,S1,1,64,M,Expert Radiologist,2019_Dec_03_1223,AdjustEyeTrack,3.1.5,59.69175547
82,Stimuli/Morph82.JPG,Stimuli/Morph82.png,Stimuli/BlurLevel5/BlurEditedMorph82,Stimuli/BlurLevel5/BlurEditedMorph82.png,Stimuli/BlurLevel5/NumberedMorphs/BlurEditedMorph82.png,Stimuli/BlurLevel5/OriginalBlur/BlurEditedMorph82.png,Stimuli/BlurMorphTrio/EditedMorph82.png,020247right.gif,Stimuli/normal_thumbnails/82right.gif,,,,,0,0,0,0,0,41,41,81,,,,,,,,,,,,,,,,,,,,,,,32,42,1,199,-2.363796439,-0.813920386,82,Experiment,,,,,,,,,89,134,-52,-52,,,,,,,,,,,,,,,493.4564182,493.9543921,493.4564182,493.9543921,29.25170068,1575397850,1575397852,1.90004921,1575397848,1575397850,,,S1,1,64,M,Expert Radiologist,2019_Dec_03_1223,AdjustEyeTrack,3.1.5,59.69175547
31,Stimuli/Morph31.JPG,Stimuli/Morph31.png,Stimuli/BlurLevel5/BlurEditedMorph31,Stimuli/BlurLevel5/BlurEditedMorph31.png,Stimuli/BlurLevel5/NumberedMorphs/BlurEditedMorph31.png,Stimuli/BlurLevel5/OriginalBlur/BlurEditedMorph31.png,Stimuli/BlurMorphTrio/EditedMorph31.png,010079right.gif,Stimuli/normal_thumbnails/31right.gif,,,,,0,0,0,0,0,42,42,30,,,,,,,,,,,,,,,,,,,,,,,75,43,1,239,-1.287595187,-2.142918252,31,Experiment,,,,,,,,,37,29,2,2,,,,,,,,,,,,,,,497.9564658,498.4553242,497.9564658,498.4553242,97.27891156,1575397855,1575397859,3.999356747,1575397852,1575397855,,,S1,1,64,M,Expert Radiologist,2019_Dec_03_1223,AdjustEyeTrack,3.1.5,59.69175547
16,Stimuli/Morph16.JPG,Stimuli/Morph16.png,Stimuli/BlurLevel5/BlurEditedMorph16,Stimuli/BlurLevel5/BlurEditedMorph16.png,Stimuli/BlurLevel5/NumberedMorphs/BlurEditedMorph16.png,Stimuli/BlurLevel5/OriginalBlur/BlurEditedMorph16.png,Stimuli/BlurMorphTrio/EditedMorph16.png,010034right.gif,Stimuli/normal_thumbnails/16right.gif,,,,,0,0,0,0,0,43,43,15,,,,,,,,,,,,,,,,,,,,,,,27,44,1,335,2.265769468,-1.056545654,16,Experiment,,,,,,,,,65,24,-8,-8,,,,,,,,,,,,,,,504.8918031,505.3884356,504.8918031,505.3884356,89.11564626,1575397862,1575397864,2.553248882,1575397859,1575397862,,,S1,1,64,M,Expert Radiologist,2019_Dec_03_1223,AdjustEyeTrack,3.1.5,59.69175547
66,Stimuli/Morph66.JPG,Stimuli/Morph66.png,Stimuli/BlurLevel5/BlurEditedMorph66,Stimuli/BlurLevel5/BlurEditedMorph66.png,Stimuli/BlurLevel5/NumberedMorphs/BlurEditedMorph66.png,Stimuli/BlurLevel5/OriginalBlur/BlurEditedMorph66.png,Stimuli/BlurMorphTrio/EditedMorph66.png,020212right.gif,Stimuli/normal_thumbnails/66right.gif,,,,,0,0,0,0,0,44,44,65,,,,,,,,,,,,,,,,,,,,,,,3,45,1,251,-0.813920386,-2.363796439,66,Experiment,,,,,,,,,66,41,25,25,,,,,,,,,,,,,,,510.4319527,510.9382407,510.4319527,510.9382407,65.98639456,1575397867,1575397872,4.400330782,1575397864,1575397867,,,S1,1,64,M,Expert Radiologist,2019_Dec_03_1223,AdjustEyeTrack,3.1.5,59.69175547
117,Stimuli/Morph117.JPG,Stimuli/Morph117.png,Stimuli/BlurLevel5/BlurEditedMorph117,Stimuli/BlurLevel5/BlurEditedMorph117.png,Stimuli/BlurLevel5/NumberedMorphs/BlurEditedMorph117.png,Stimuli/BlurLevel5/OriginalBlur/BlurEditedMorph117.png,Stimuli/BlurMorphTrio/EditedMorph117.png,None,None,,,,,0,0,0,0,0,45,45,116,,,,,,,,,,,,,,,,,,,,,,,4,46,1,296,1.095927867,-2.246985116,117,Experiment,,,,,,,,,50,120,-3,-3,,,,,,,,,,,,,,,517.8802179,518.3879238,517.8802179,518.3879238,95.91836735,1575397875,1575397877,2.201244116,1575397872,1575397875,,,S1,1,64,M,Expert Radiologist,2019_Dec_03_1223,AdjustEyeTrack,3.1.5,59.69175547
65,Stimuli/Morph65.JPG,Stimuli/Morph65.png,Stimuli/BlurLevel5/BlurEditedMorph65,Stimuli/BlurLevel5/BlurEditedMorph65.png,Stimuli/BlurLevel5/NumberedMorphs/BlurEditedMorph65.png,Stimuli/BlurLevel5/OriginalBlur/BlurEditedMorph65.png,Stimuli/BlurMorphTrio/EditedMorph65.png,020209right.gif,Stimuli/normal_thumbnails/65right.gif,,,,,0,0,0,0,0,46,46,64,,,,,,,,,,,,,,,,,,,,,,,24,47,1,278,0.347932752,-2.475670172,65,Experiment,,,,,,,,,102,38,27,27,,,,,,,,,,,,,,,522.8224348,523.3212584,522.8224348,523.3212584,63.26530612,1575397880,1575397886,6.051577806,1575397877,1575397880,,,S1,1,64,M,Expert Radiologist,2019_Dec_03_1223,AdjustEyeTrack,3.1.5,59.69175547
11,Stimuli/Morph11.JPG,Stimuli/Morph11.png,Stimuli/BlurLevel5/BlurEditedMorph11,Stimuli/BlurLevel5/BlurEditedMorph11.png,Stimuli/BlurLevel5/NumberedMorphs/BlurEditedMorph11.png,Stimuli/BlurLevel5/OriginalBlur/BlurEditedMorph11.png,Stimuli/BlurMorphTrio/EditedMorph11.png,010024right.gif,Stimuli/normal_thumbnails/11right.gif,,,,,0,0,0,0,0,47,47,10,,,,,,,,,,,,,,,,,,,,,,,77,48,1,83,0.304673359,2.481365379,11,Experiment,,,,,,,,,119,119,-108,39,,,,,,,,,,,,,,,531.644046,532.1379596,531.644046,532.1379596,46.93877551,1575397888,1575397889,1.1010921,1575397886,1575397888,,,S1,1,64,M,Expert Radiologist,2019_Dec_03_1223,AdjustEyeTrack,3.1.5,59.69175547
23,Stimuli/Morph23.JPG,Stimuli/Morph23.png,Stimuli/BlurLevel5/BlurEditedMorph23,Stimuli/BlurLevel5/BlurEditedMorph23.png,Stimuli/BlurLevel5/NumberedMorphs/BlurEditedMorph23.png,Stimuli/BlurLevel5/OriginalBlur/BlurEditedMorph23.png,Stimuli/BlurMorphTrio/EditedMorph23.png,010063right.gif,Stimuli/normal_thumbnails/23right.gif,,,,,0,0,0,0,0,48,48,22,,,,,,,,,,,,,,,,,,,,,,,19,49,1,265,-0.217889357,-2.490486745,23,Experiment,,,,,,,,,74,28,-5,-5,,,,,,,,,,,,,,,535.8436512,536.3376865,535.8436512,536.3376865,93.19727891,1575397893,1575397896,3.665251017,1575397890,1575397893,,,S1,1,64,M,Expert Radiologist,2019_Dec_03_1223,AdjustEyeTrack,3.1.5,59.69175547
30,Stimuli/Morph30.JPG,Stimuli/Morph30.png,Stimuli/BlurLevel5/BlurEditedMorph30,Stimuli/BlurLevel5/BlurEditedMorph30.png,Stimuli/BlurLevel5/NumberedMorphs/BlurEditedMorph30.png,Stimuli/BlurLevel5/OriginalBlur/BlurEditedMorph30.png,Stimuli/BlurMorphTrio/EditedMorph30.png,010076right.gif,Stimuli/normal_thumbnails/30right.gif,,,,,0,0,0,0,0,49,49,29,,,,,,,,,,,,,,,,,,,,,,,51,50,1,145,-2.047880111,1.433941091,30,Experiment,,,,,,,,,19,19,11,11,,,,,,,,,,,,,,,542.1126302,542.6044744,542.1126302,542.6044744,85.03401361,1575397899,1575397900,0.816519976,1575397897,1575397899,,,S1,1,64,M,Expert Radiologist,2019_Dec_03_1223,AdjustEyeTrack,3.1.5,59.69175547
133,Stimuli/Morph133.JPG,Stimuli/Morph133.png,Stimuli/BlurLevel5/BlurEditedMorph133,Stimuli/BlurLevel5/BlurEditedMorph133.png,Stimuli/BlurLevel5/NumberedMorphs/BlurEditedMorph133.png,Stimuli/BlurLevel5/OriginalBlur/BlurEditedMorph133.png,Stimuli/BlurMorphTrio/EditedMorph133.png,None,None,,,,,0,0,0,0,0,50,50,132,,,,,,,,,,,,,,,,,,,,,,,79,51,1,194,-2.425739316,-0.604804739,133,Experiment,,,,,,,,,66,134,-1,-1,,,,,,,,,,,,,,,545.4878314,545.987954,545.4878314,545.987954,98.63945578,1575397902,1575397904,2.228532076,1575397900,1575397902,,,S1,1,64,M,Expert Radiologist,2019_Dec_03_1223,AdjustEyeTrack,3.1.5,59.69175547
67,Stimuli/Morph67.JPG,Stimuli/Morph67.png,Stimuli/BlurLevel5/BlurEditedMorph67,Stimuli/BlurLevel5/BlurEditedMorph67.png,Stimuli/BlurLevel5/NumberedMorphs/BlurEditedMorph67.png,Stimuli/BlurLevel5/OriginalBlur/BlurEditedMorph67.png,Stimuli/BlurMorphTrio/EditedMorph67.png,020217right.gif,Stimuli/normal_thumbnails/67right.gif,,,,,0,0,0,0,0,51,51,66,,,,,,,,,,,,,,,,,,,,,,,97,52,1,57,1.361597588,2.09667642,67,Experiment,,,,,,,,,24,35,32,32,,,,,,,,,,,,,,,550.7371208,551.2380042,550.7371208,551.2380042,56.46258503,1575397907,1575397911,3.883745193,1575397905,1575397907,,,S1,1,64,M,Expert Radiologist,2019_Dec_03_1223,AdjustEyeTrack,3.1.5,59.69175547
100,Stimuli/Morph100.JPG,Stimuli/Morph100.png,Stimuli/BlurLevel5/BlurEditedMorph100,Stimuli/BlurLevel5/BlurEditedMorph100.png,Stimuli/BlurLevel5/NumberedMorphs/BlurEditedMorph100.png,Stimuli/BlurLevel5/OriginalBlur/BlurEditedMorph100.png,Stimuli/BlurMorphTrio/EditedMorph100.png,020297right.gif,Stimuli/normal_thumbnails/100right.gif,,,,,0,0,0,0,0,52,52,99,,,,,,,,,,,,,,,,,,,,,,,50,53,1,78,0.519779227,2.445369002,100,Experiment,,,,,,,,,10,101,-1,-1,,,,,,,,,,,,,,,557.4408015,557.937094,557.4408015,557.937094,98.63945578,1575397914,1575397917,2.481976986,1575397912,1575397914,,,S1,1,64,M,Expert Radiologist,2019_Dec_03_1223,AdjustEyeTrack,3.1.5,59.69175547
76,Stimuli/Morph76.JPG,Stimuli/Morph76.png,Stimuli/BlurLevel5/BlurEditedMorph76,Stimuli/BlurLevel5/BlurEditedMorph76.png,Stimuli/BlurLevel5/NumberedMorphs/BlurEditedMorph76.png,Stimuli/BlurLevel5/OriginalBlur/BlurEditedMorph76.png,Stimuli/BlurMorphTrio/EditedMorph76.png,020234right.gif,Stimuli/normal_thumbnails/76right.gif,,,,,0,0,0,0,0,53,53,75,,,,,,,,,,,,,,,,,,,,,,,44,54,1,260,-0.434120444,-2.462019383,76,Experiment,,,,,,,,,27,81,-5,-5,,,,,,,,,,,,,,,562.7648567,563.2549624,562.7648567,563.2549624,93.19727891,1575397919,1575397922,2.583034277,1575397917,1575397919,,,S1,1,64,M,Expert Radiologist,2019_Dec_03_1223,AdjustEyeTrack,3.1.5,59.69175547
129,Stimuli/Morph129.JPG,Stimuli/Morph129.png,Stimuli/BlurLevel5/BlurEditedMorph129,Stimuli/BlurLevel5/BlurEditedMorph129.png,Stimuli/BlurLevel5/NumberedMorphs/BlurEditedMorph129.png,Stimuli/BlurLevel5/OriginalBlur/BlurEditedMorph129.png,Stimuli/BlurMorphTrio/EditedMorph129.png,None,None,,,,,0,0,0,0,0,54,54,128,,,,,,,,,,,,,,,,,,,,,,,39,55,1,150,-2.165063509,1.25,129,Experiment,,,,,,,,,94,94,35,35,,,,,,,,,,,,,,,568.298795,568.8041299,568.298795,568.8041299,52.38095238,1575397925,1575397926,0.867534876,1575397922,1575397925,,,S1,1,64,M,Expert Radiologist,2019_Dec_03_1223,AdjustEyeTrack,3.1.5,59.69175547
51,Stimuli/Morph51.JPG,Stimuli/Morph51.png,Stimuli/BlurLevel5/BlurEditedMorph51,Stimuli/BlurLevel5/BlurEditedMorph51.png,Stimuli/BlurLevel5/NumberedMorphs/BlurEditedMorph51.png,Stimuli/BlurLevel5/OriginalBlur/BlurEditedMorph51.png,Stimuli/BlurMorphTrio/EditedMorph51.png,010146right.gif,Stimuli/normal_thumbnails/51right.gif,,,,,0,0,0,0,0,55,55,50,,,,,,,,,,,,,,,,,,,,,,,23,56,1,131,-1.640147572,1.886773951,51,Experiment,,,,,,,,,84,44,7,7,,,,,,,,,,,,,,,571.9638077,572.4533957,571.9638077,572.4533957,90.47619048,1575397929,1575397931,2.750563622,1575397926,1575397929,,,S1,1,64,M,Expert Radiologist,2019_Dec_03_1223,AdjustEyeTrack,3.1.5,59.69175547
136,Stimuli/Morph136.JPG,Stimuli/Morph136.png,Stimuli/BlurLevel5/BlurEditedMorph136,Stimuli/BlurLevel5/BlurEditedMorph136.png,Stimuli/BlurLevel5/NumberedMorphs/BlurEditedMorph136.png,Stimuli/BlurLevel5/OriginalBlur/BlurEditedMorph136.png,Stimuli/BlurMorphTrio/EditedMorph136.png,None,None,,,,,0,0,0,0,0,56,56,135,,,,,,,,,,,,,,,,,,,,,,,14,57,1,354,2.486304738,-0.261321158,136,Experiment,,,,,,,,,36,7,129,-18,,,,,,,,,,,,,,,577.4931592,577.9871034,577.4931592,577.9871034,75.51020408,1575397934,1575397938,3.383117914,1575397932,1575397934,,,S1,1,64,M,Expert Radiologist,2019_Dec_03_1223,AdjustEyeTrack,3.1.5,59.69175547
19,Stimuli/Morph19.JPG,Stimuli/Morph19.png,Stimuli/BlurLevel5/BlurEditedMorph19,Stimuli/BlurLevel5/BlurEditedMorph19.png,Stimuli/BlurLevel5/NumberedMorphs/BlurEditedMorph19.png,Stimuli/BlurLevel5/OriginalBlur/BlurEditedMorph19.png,Stimuli/BlurMorphTrio/EditedMorph19.png,010045right.gif,Stimuli/normal_thumbnails/19right.gif,,,,,0,0,0,0,0,57,57,18,,,,,,,,,,,,,,,,,,,,,,,40,58,1,65,1.056545654,2.265769468,19,Experiment,,,,,,,,,23,23,-4,-4,,,,,,,,,,,,,,,583.8210665,584.3198844,583.8210665,584.3198844,94.55782313,1575397941,1575397941,0.599963903,1575397938,1575397941,,,S1,1,64,M,Expert Radiologist,2019_Dec_03_1223,AdjustEyeTrack,3.1.5,59.69175547
44,Stimuli/Morph44.JPG,Stimuli/Morph44.png,Stimuli/BlurLevel5/BlurEditedMorph44,Stimuli/BlurLevel5/BlurEditedMorph44.png,Stimuli/BlurLevel5/NumberedMorphs/BlurEditedMorph44.png,Stimuli/BlurLevel5/OriginalBlur/BlurEditedMorph44.png,Stimuli/BlurMorphTrio/EditedMorph44.png,010126right.gif,Stimuli/normal_thumbnails/44right.gif,,,,,0,0,0,0,0,58,58,43,,,,,,,,,,,,,,,,,,,,,,,38,59,1,79,0.477022488,2.454067959,44,Experiment,,,,,,,,,96,30,14,14,,,,,,,,,,,,,,,587.3591695,587.8871942,587.3591695,587.8871942,80.95238095,1575397944,1575397946,2.300160885,1575397941,1575397944,,,S1,1,64,M,Expert Radiologist,2019_Dec_03_1223,AdjustEyeTrack,3.1.5,59.69175547
29,Stimuli/Morph29.JPG,Stimuli/Morph29.png,Stimuli/BlurLevel5/BlurEditedMorph29,Stimuli/BlurLevel5/BlurEditedMorph29.png,Stimuli/BlurLevel5/NumberedMorphs/BlurEditedMorph29.png,Stimuli/BlurLevel5/OriginalBlur/BlurEditedMorph29.png,Stimuli/BlurMorphTrio/EditedMorph29.png,010074right.gif,Stimuli/normal_thumbnails/29right.gif,,,,,0,0,0,0,0,59,59,28,,,,,,,,,,,,,,,,,,,,,,,97,60,1,281,0.477022488,-2.454067959,29,Experiment,,,,,,,,,84,26,3,3,,,,,,,,,,,,,,,592.711514,593.2199735,592.711514,593.2199735,95.91836735,1575397949,1575397952,2.551842213,1575397947,1575397949,,,S1,1,64,M,Expert Radiologist,2019_Dec_03_1223,AdjustEyeTrack,3.1.5,59.69175547
28,Stimuli/Morph28.JPG,Stimuli/Morph28.png,Stimuli/BlurLevel5/BlurEditedMorph28,Stimuli/BlurLevel5/BlurEditedMorph28.png,Stimuli/BlurLevel5/NumberedMorphs/BlurEditedMorph28.png,Stimuli/BlurLevel5/OriginalBlur/BlurEditedMorph28.png,Stimuli/BlurMorphTrio/EditedMorph28.png,010073right.gif,Stimuli/normal_thumbnails/28right.gif,,,,,0,0,0,0,0,60,60,27,,,,,,,,,,,,,,,,,,,,,,,27,61,1,302,1.324798161,-2.12012024,28,Experiment,,,,,,,,,36,21,7,7,,,,,,,,,,,,,,,597.7899195,598.3031413,597.7899195,598.3031413,90.47619048,1575397955,1575397959,4.650713205,1575397952,1575397955,,,S1,1,64,M,Expert Radiologist,2019_Dec_03_1223,AdjustEyeTrack,3.1.5,59.69175547
140,Stimuli/Morph140.JPG,Stimuli/Morph140.png,Stimuli/BlurLevel5/BlurEditedMorph140,Stimuli/BlurLevel5/BlurEditedMorph140.png,Stimuli/BlurLevel5/NumberedMorphs/BlurEditedMorph140.png,Stimuli/BlurLevel5/OriginalBlur/BlurEditedMorph140.png,Stimuli/BlurMorphTrio/EditedMorph140.png,None,None,,,,,0,0,0,0,0,61,61,139,,,,,,,,,,,,,,,,,,,,,,,22,62,1,198,-2.377641291,-0.772542486,140,Experiment,,,,,,,,,118,26,114,-33,,,,,,,,,,,,,,,604.9201572,605.4204152,604.9201572,605.4204152,55.10204082,1575397962,1575397964,2.184622049,1575397959,1575397962,,,S1,1,64,M,Expert Radiologist,2019_Dec_03_1223,AdjustEyeTrack,3.1.5,59.69175547
103,Stimuli/Morph103.JPG,Stimuli/Morph103.png,Stimuli/BlurLevel5/BlurEditedMorph103,Stimuli/BlurLevel5/BlurEditedMorph103.png,Stimuli/BlurLevel5/NumberedMorphs/BlurEditedMorph103.png,Stimuli/BlurLevel5/OriginalBlur/BlurEditedMorph103.png,Stimuli/BlurMorphTrio/EditedMorph103.png,None,None,,,,,0,0,0,0,0,62,62,102,,,,,,,,,,,,,,,,,,,,,,,56,63,1,146,-2.072593931,1.397982259,103,Experiment,,,,,,,,,23,99,4,4,,,,,,,,,,,,,,,610.2201635,610.7206474,610.2201635,610.7206474,94.55782313,1575397967,1575397969,2.000270128,1575397964,1575397967,,,S1,1,64,M,Expert Radiologist,2019_Dec_03_1223,AdjustEyeTrack,3.1.5,59.69175547
35,Stimuli/Morph35.JPG,Stimuli/Morph35.png,Stimuli/BlurLevel5/BlurEditedMorph35,Stimuli/BlurLevel5/BlurEditedMorph35.png,Stimuli/BlurLevel5/NumberedMorphs/BlurEditedMorph35.png,Stimuli/BlurLevel5/OriginalBlur/BlurEditedMorph35.png,Stimuli/BlurMorphTrio/EditedMorph35.png,010094right.gif,Stimuli/normal_thumbnails/35right.gif,,,,,0,0,0,0,0,63,63,34,,,,,,,,,,,,,,,,,,,,,,,7,64,1,352,2.475670172,-0.347932752,35,Experiment,,,,,,,,,38,38,-3,-3,,,,,,,,,,,,,,,614.9538722,615.4532215,614.9538722,615.4532215,95.91836735,1575397972,1575397973,1.019142866,1575397969,1575397972,,,S1,1,64,M,Expert Radiologist,2019_Dec_03_1223,AdjustEyeTrack,3.1.5,59.69175547
42,Stimuli/Morph42.JPG,Stimuli/Morph42.png,Stimuli/BlurLevel5/BlurEditedMorph42,Stimuli/BlurLevel5/BlurEditedMorph42.png,Stimuli/BlurLevel5/NumberedMorphs/BlurEditedMorph42.png,Stimuli/BlurLevel5/OriginalBlur/BlurEditedMorph42.png,Stimuli/BlurMorphTrio/EditedMorph42.png,010121right.gif,Stimuli/normal_thumbnails/42right.gif,,,,,0,0,0,0,0,64,64,41,,,,,,,,,,,,,,,,,,,,,,,85,65,1,239,-1.287595187,-2.142918252,42,Experiment,,,,,,,,,31,31,11,11,,,,,,,,,,,,,,,618.6866247,619.1927087,618.6866247,619.1927087,85.03401361,1575397975,1575397976,0.599756956,1575397973,1575397975,,,S1,1,64,M,Expert Radiologist,2019_Dec_03_1223,AdjustEyeTrack,3.1.5,59.69175547
3,Stimuli/Morph3.JPG,Stimuli/Morph3.png,Stimuli/BlurLevel5/BlurEditedMorph3,Stimuli/BlurLevel5/BlurEditedMorph3.png,Stimuli/BlurLevel5/NumberedMorphs/BlurEditedMorph3.png,Stimuli/BlurLevel5/OriginalBlur/BlurEditedMorph3.png,Stimuli/BlurMorphTrio/EditedMorph3.png,010009right.gif,Stimuli/normal_thumbnails/3right.gif,,,,,0,0,0,0,0,65,65,2,,,,,,,,,,,,,,,,,,,,,,,32,66,1,184,-2.493910126,-0.174391184,3,Experiment,,,,,,,,,109,142,-139,8,,,,,,,,,,,,,,,622.1428958,622.6365907,622.1428958,622.6365907,89.11564626,1575397979,1575397980,1.533418894,1575397976,1575397979,,,S1,1,64,M,Expert Radiologist,2019_Dec_03_1223,AdjustEyeTrack,3.1.5,59.69175547
124,Stimuli/Morph124.JPG,Stimuli/Morph124.png,Stimuli/BlurLevel5/BlurEditedMorph124,Stimuli/BlurLevel5/BlurEditedMorph124.png,Stimuli/BlurLevel5/NumberedMorphs/BlurEditedMorph124.png,Stimuli/BlurLevel5/OriginalBlur/BlurEditedMorph124.png,Stimuli/BlurMorphTrio/EditedMorph124.png,None,None,,,,,0,0,0,0,0,66,66,123,,,,,,,,,,,,,,,,,,,,,,,15,67,1,75,0.647047613,2.414814566,124,Experiment,,,,,,,,,120,120,4,4,,,,,,,,,,,,,,,626.4237821,626.9194734,626.4237821,626.9194734,94.55782313,1575397983,1575397984,0.715456009,1575397981,1575397983,,,S1,1,64,M,Expert Radiologist,2019_Dec_03_1223,AdjustEyeTrack,3.1.5,59.69175547
130,Stimuli/Morph130.JPG,Stimuli/Morph130.png,Stimuli/BlurLevel5/BlurEditedMorph130,Stimuli/BlurLevel5/BlurEditedMorph130.png,Stimuli/BlurLevel5/NumberedMorphs/BlurEditedMorph130.png,Stimuli/BlurLevel5/OriginalBlur/BlurEditedMorph130.png,Stimuli/BlurMorphTrio/EditedMorph130.png,None,None,,,,,0,0,0,0,0,67,67,129,,,,,,,,,,,,,,,,,,,,,,,85,68,1,242,-1.173678907,-2.207368982,130,Experiment,,,,,,,,,20,105,25,25,,,,,,,,,,,,,,,629.5186165,630.0198584,629.5186165,630.0198584,65.98639456,1575397986,1575397991,4.584015846,1575397984,1575397986,,,S1,1,64,M,Expert Radiologist,2019_Dec_03_1223,AdjustEyeTrack,3.1.5,59.69175547
97,Stimuli/Morph97.JPG,Stimuli/Morph97.png,Stimuli/BlurLevel5/BlurEditedMorph97,Stimuli/BlurLevel5/BlurEditedMorph97.png,Stimuli/BlurLevel5/NumberedMorphs/BlurEditedMorph97.png,Stimuli/BlurLevel5/OriginalBlur/BlurEditedMorph97.png,Stimuli/BlurMorphTrio/EditedMorph97.png,020294right.gif,Stimuli/normal_thumbnails/97right.gif,,,,,0,0,0,0,0,68,68,96,,,,,,,,,,,,,,,,,,,,,,,6,69,1,29,2.186549268,1.212024051,97,Experiment,,,,,,,,,64,108,-11,-11,,,,,,,,,,,,,,,637.3432348,637.8358279,637.3432348,637.8358279,85.03401361,1575397994,1575397996,1.599794865,1575397991,1575397994,,,S1,1,64,M,Expert Radiologist,2019_Dec_03_1223,AdjustEyeTrack,3.1.5,59.69175547
64,Stimuli/Morph64.JPG,Stimuli/Morph64.png,Stimuli/BlurLevel5/BlurEditedMorph64,Stimuli/BlurLevel5/BlurEditedMorph64.png,Stimuli/BlurLevel5/NumberedMorphs/BlurEditedMorph64.png,Stimuli/BlurLevel5/OriginalBlur/BlurEditedMorph64.png,Stimuli/BlurMorphTrio/EditedMorph64.png,020208right.gif,Stimuli/normal_thumbnails/64right.gif,,,,,0,0,0,0,0,69,69,63,,,,,,,,,,,,,,,,,,,,,,,100,70,1,340,2.349231552,-0.855050358,64,Experiment,,,,,,,,,62,62,2,2,,,,,,,,,,,,,,,641.4410409,641.9362362,641.4410409,641.9362362,97.27891156,1575397998,1575397999,0.934813976,1575397996,1575397998,,,S1,1,64,M,Expert Radiologist,2019_Dec_03_1223,AdjustEyeTrack,3.1.5,59.69175547
54,Stimuli/Morph54.JPG,Stimuli/Morph54.png,Stimuli/BlurLevel5/BlurEditedMorph54,Stimuli/BlurLevel5/BlurEditedMorph54.png,Stimuli/BlurLevel5/NumberedMorphs/BlurEditedMorph54.png,Stimuli/BlurLevel5/OriginalBlur/BlurEditedMorph54.png,Stimuli/BlurMorphTrio/EditedMorph54.png,010150right.gif,Stimuli/normal_thumbnails/54right.gif,,,,,0,0,0,0,0,70,70,53,,,,,,,,,,,,,,,,,,,,,,,46,71,1,136,-1.798349501,1.736645926,54,Experiment,,,,,,,,,70,89,-35,-35,,,,,,,,,,,,,,,645.0042703,645.5037942,645.0042703,645.5037942,52.38095238,1575398002,1575398007,4.950876951,1575397999,1575398002,,,S1,1,64,M,Expert Radiologist,2019_Dec_03_1223,AdjustEyeTrack,3.1.5,59.69175547
122,Stimuli/Morph122.JPG,Stimuli/Morph122.png,Stimuli/BlurLevel5/BlurEditedMorph122,Stimuli/BlurLevel5/BlurEditedMorph122.png,Stimuli/BlurLevel5/NumberedMorphs/BlurEditedMorph122.png,Stimuli/BlurLevel5/OriginalBlur/BlurEditedMorph122.png,Stimuli/BlurMorphTrio/EditedMorph122.png,None,None,,,,,0,0,0,0,0,71,71,121,,,,,,,,,,,,,,,,,,,,,,,25,72,1,253,-0.730929262,-2.39076189,122,Experiment,,,,,,,,,95,95,27,27,,,,,,,,,,,,,,,652.5708194,653.0687396,652.5708194,653.0687396,63.26530612,1575398009,1575398010,0.700332165,1575398007,1575398009,,,S1,1,64,M,Expert Radiologist,2019_Dec_03_1223,AdjustEyeTrack,3.1.5,59.69175547
48,Stimuli/Morph48.JPG,Stimuli/Morph48.png,Stimuli/BlurLevel5/BlurEditedMorph48,Stimuli/BlurLevel5/BlurEditedMorph48.png,Stimuli/BlurLevel5/NumberedMorphs/BlurEditedMorph48.png,Stimuli/BlurLevel5/OriginalBlur/BlurEditedMorph48.png,Stimuli/BlurMorphTrio/EditedMorph48.png,010131right.gif,Stimuli/normal_thumbnails/48right.gif,,,,,0,0,0,0,0,72,72,47,,,,,,,,,,,,,,,,,,,,,,,45,73,1,30,2.165063509,1.25,48,Experiment,,,,,,,,,55,55,-7,-7,,,,,,,,,,,,,,,655.8293874,656.5523648,655.8293874,656.5523648,90.47619048,1575398013,1575398013,0.701039791,1575398010,1575398013,,,S1,1,64,M,Expert Radiologist,2019_Dec_03_1223,AdjustEyeTrack,3.1.5,59.69175547
119,Stimuli/Morph119.JPG,Stimuli/Morph119.png,Stimuli/BlurLevel5/BlurEditedMorph119,Stimuli/BlurLevel5/BlurEditedMorph119.png,Stimuli/BlurLevel5/NumberedMorphs/BlurEditedMorph119.png,Stimuli/BlurLevel5/OriginalBlur/BlurEditedMorph119.png,Stimuli/BlurMorphTrio/EditedMorph119.png,None,None,,,,,0,0,0,0,0,73,73,118,,,,,,,,,,,,,,,,,,,,,,,11,74,1,232,-1.539153688,-1.970026884,119,Experiment,,,,,,,,,48,102,17,17,,,,,,,,,,,,,,,659.4421589,659.9364147,659.4421589,659.9364147,76.8707483,1575398016,1575398018,2.00046277,1575398014,1575398016,,,S1,1,64,M,Expert Radiologist,2019_Dec_03_1223,AdjustEyeTrack,3.1.5,59.69175547
56,Stimuli/Morph56.JPG,Stimuli/Morph56.png,Stimuli/BlurLevel5/BlurEditedMorph56,Stimuli/BlurLevel5/BlurEditedMorph56.png,Stimuli/BlurLevel5/NumberedMorphs/BlurEditedMorph56.png,Stimuli/BlurLevel5/OriginalBlur/BlurEditedMorph56.png,Stimuli/BlurMorphTrio/EditedMorph56.png,010157right.gif,Stimuli/normal_thumbnails/56right.gif,,,,,0,0,0,0,0,74,74,55,,,,,,,,,,,,,,,,,,,,,,,92,75,1,273,0.130839891,-2.496573837,56,Experiment,,,,,,,,,41,92,-36,-36,,,,,,,,,,,,,,,664.3197376,664.8201806,664.3197376,664.8201806,51.02040816,1575398021,1575398025,3.599974871,1575398018,1575398021,,,S1,1,64,M,Expert Radiologist,2019_Dec_03_1223,AdjustEyeTrack,3.1.5,59.69175547
146,Stimuli/Morph146.JPG,Stimuli/Morph146.png,Stimuli/BlurLevel5/BlurEditedMorph146,Stimuli/BlurLevel5/BlurEditedMorph146.png,Stimuli/BlurLevel5/NumberedMorphs/BlurEditedMorph146.png,Stimuli/BlurLevel5/OriginalBlur/BlurEditedMorph146.png,Stimuli/BlurMorphTrio/EditedMorph146.png,None,None,,,,,0,0,0,0,0,75,75,145,,,,,,,,,,,,,,,,,,,,,,,53,76,1,347,2.435925162,-0.562377636,146,Experiment,,,,,,,,,124,124,22,22,,,,,,,,,,,,,,,670.8588299,671.3525369,670.8588299,671.3525369,70.06802721,1575398028,1575398029,0.996864796,1575398025,1575398028,,,S1,1,64,M,Expert Radiologist,2019_Dec_03_1223,AdjustEyeTrack,3.1.5,59.69175547
5,Stimuli/Morph5.JPG,Stimuli/Morph5.png,Stimuli/BlurLevel5/BlurEditedMorph5,Stimuli/BlurLevel5/BlurEditedMorph5.png,Stimuli/BlurLevel5/NumberedMorphs/BlurEditedMorph5.png,Stimuli/BlurLevel5/OriginalBlur/BlurEditedMorph5.png,Stimuli/BlurMorphTrio/EditedMorph5.png,010011right.gif,Stimuli/normal_thumbnails/5right.gif,,,,,0,0,0,0,0,76,76,4,,,,,,,,,,,,,,,,,,,,,,,93,77,1,329,2.142918252,-1.287595187,5,Experiment,,,,,,,,,31,129,-124,23,,,,,,,,,,,,,,,675.6214207,676.1203495,675.6214207,676.1203495,68.70748299,1575398032,1575398035,2.784366131,1575398029,1575398032,,,S1,1,64,M,Expert Radiologist,2019_Dec_03_1223,AdjustEyeTrack,3.1.5,59.69175547
109,Stimuli/Morph109.JPG,Stimuli/Morph109.png,Stimuli/BlurLevel5/BlurEditedMorph109,Stimuli/BlurLevel5/BlurEditedMorph109.png,Stimuli/BlurLevel5/NumberedMorphs/BlurEditedMorph109.png,Stimuli/BlurLevel5/OriginalBlur/BlurEditedMorph109.png,Stimuli/BlurMorphTrio/EditedMorph109.png,None,None,,,,,0,0,0,0,0,77,77,108,,,,,,,,,,,,,,,,,,,,,,,24,78,1,80,0.434120444,2.462019383,109,Experiment,,,,,,,,,65,101,8,8,,,,,,,,,,,,,,,681.2365393,681.7357699,681.2365393,681.7357699,89.11564626,1575398038,1575398039,1.516415119,1575398035,1575398038,,,S1,1,64,M,Expert Radiologist,2019_Dec_03_1223,AdjustEyeTrack,3.1.5,59.69175547
90,Stimuli/Morph90.JPG,Stimuli/Morph90.png,Stimuli/BlurLevel5/BlurEditedMorph90,Stimuli/BlurLevel5/BlurEditedMorph90.png,Stimuli/BlurLevel5/NumberedMorphs/BlurEditedMorph90.png,Stimuli/BlurLevel5/OriginalBlur/BlurEditedMorph90.png,Stimuli/BlurMorphTrio/EditedMorph90.png,020275right.gif,Stimuli/normal_thumbnails/90right.gif,,,,,0,0,0,0,0,78,78,89,,,,,,,,,,,,,,,,,,,,,,,83,79,1,169,-2.454067959,0.477022488,90,Experiment,,,,,,,,,46,87,3,3,,,,,,,,,,,,,,,685.7741527,686.2686668,685.7741527,686.2686668,95.91836735,1575398042,1575398047,4.067365885,1575398040,1575398042,,,S1,1,64,M,Expert Radiologist,2019_Dec_03_1223,AdjustEyeTrack,3.1.5,59.69175547
2,Stimuli/Morph2.JPG,Stimuli/Morph2.png,Stimuli/BlurLevel5/BlurEditedMorph2,Stimuli/BlurLevel5/BlurEditedMorph2.png,Stimuli/BlurLevel5/NumberedMorphs/BlurEditedMorph2.png,Stimuli/BlurLevel5/OriginalBlur/BlurEditedMorph2.png,Stimuli/BlurMorphTrio/EditedMorph2.png,010006right.gif,Stimuli/normal_thumbnails/2right.gif,,,,,0,0,0,0,0,79,79,1,,,,,,,,,,,,,,,,,,,,,,,86,80,1,49,1.640147572,1.886773951,2,Experiment,,,,,,,,,104,133,-131,16,,,,,,,,,,,,,,,692.3728264,692.8689846,692.3728264,692.8689846,78.23129252,1575398049,1575398051,1.48330617,1575398047,1575398049,,,S1,1,64,M,Expert Radiologist,2019_Dec_03_1223,AdjustEyeTrack,3.1.5,59.69175547
147,Stimuli/Morph147.JPG,Stimuli/Morph147.png,Stimuli/BlurLevel5/BlurEditedMorph147,Stimuli/BlurLevel5/BlurEditedMorph147.png,Stimuli/BlurLevel5/NumberedMorphs/BlurEditedMorph147.png,Stimuli/BlurLevel5/OriginalBlur/BlurEditedMorph147.png,Stimuli/BlurMorphTrio/EditedMorph147.png,None,None,,,,,0,0,0,0,0,80,80,146,,,,,,,,,,,,,,,,,,,,,,,95,81,1,174,-2.486304738,0.261321158,147,Experiment,,,,,,,,,47,1,146,-1,,,,,,,,,,,,,,,696.995865,697.4887081,696.995865,697.4887081,98.63945578,1575398054,1575398056,2.50256896,1575398051,1575398054,,,S1,1,64,M,Expert Radiologist,2019_Dec_03_1223,AdjustEyeTrack,3.1.5,59.69175547
131,Stimuli/Morph131.JPG,Stimuli/Morph131.png,Stimuli/BlurLevel5/BlurEditedMorph131,Stimuli/BlurLevel5/BlurEditedMorph131.png,Stimuli/BlurLevel5/NumberedMorphs/BlurEditedMorph131.png,Stimuli/BlurLevel5/OriginalBlur/BlurEditedMorph131.png,Stimuli/BlurMorphTrio/EditedMorph131.png,None,None,,,,,0,0,0,0,0,81,81,130,,,,,,,,,,,,,,,,,,,,,,,25,82,1,14,2.425739316,0.604804739,131,Experiment,,,,,,,,,104,142,-11,-11,,,,,,,,,,,,,,,702.0190895,702.5191826,702.0190895,702.5191826,85.03401361,1575398059,1575398060,1.468579769,1575398056,1575398059,,,S1,1,64,M,Expert Radiologist,2019_Dec_03_1223,AdjustEyeTrack,3.1.5,59.69175547
25,Stimuli/Morph25.JPG,Stimuli/Morph25.png,Stimuli/BlurLevel5/BlurEditedMorph25,Stimuli/BlurLevel5/BlurEditedMorph25.png,Stimuli/BlurLevel5/NumberedMorphs/BlurEditedMorph25.png,Stimuli/BlurLevel5/OriginalBlur/BlurEditedMorph25.png,Stimuli/BlurMorphTrio/EditedMorph25.png,010069right.gif,Stimuli/normal_thumbnails/25right.gif,,,,,0,0,0,0,0,82,82,24,,,,,,,,,,,,,,,,,,,,,,,19,83,1,125,-1.433941091,2.047880111,25,Experiment,,,,,,,,,32,10,15,15,,,,,,,,,,,,,,,706.7352657,707.2358787,706.7352657,707.2358787,79.59183673,1575398063,1575398067,3.450471878,1575398060,1575398063,,,S1,1,64,M,Expert Radiologist,2019_Dec_03_1223,AdjustEyeTrack,3.1.5,59.69175547
107,Stimuli/Morph107.JPG,Stimuli/Morph107.png,Stimuli/BlurLevel5/BlurEditedMorph107,Stimuli/BlurLevel5/BlurEditedMorph107.png,Stimuli/BlurLevel5/NumberedMorphs/BlurEditedMorph107.png,Stimuli/BlurLevel5/OriginalBlur/BlurEditedMorph107.png,Stimuli/BlurMorphTrio/EditedMorph107.png,None,None,,,,,0,0,0,0,0,83,83,106,,,,,,,,,,,,,,,,,,,,,,,52,84,1,75,0.647047613,2.414814566,107,Experiment,,,,,,,,,112,112,-5,-5,,,,,,,,,,,,,,,712.8350897,713.3353339,712.8350897,713.3353339,93.19727891,1575398070,1575398070,0.617048025,1575398067,1575398070,,,S1,1,64,M,Expert Radiologist,2019_Dec_03_1223,AdjustEyeTrack,3.1.5,59.69175547
102,Stimuli/Morph102.JPG,Stimuli/Morph102.png,Stimuli/BlurLevel5/BlurEditedMorph102,Stimuli/BlurLevel5/BlurEditedMorph102.png,Stimuli/BlurLevel5/NumberedMorphs/BlurEditedMorph102.png,Stimuli/BlurLevel5/OriginalBlur/BlurEditedMorph102.png,Stimuli/BlurMorphTrio/EditedMorph102.png,None,None,,,,,0,0,0,0,0,84,84,101,,,,,,,,,,,,,,,,,,,,,,,51,85,1,54,1.469463131,2.022542486,102,Experiment,,,,,,,,,119,119,-17,-17,,,,,,,,,,,,,,,716.6413049,717.1524653,716.6413049,717.1524653,76.8707483,1575398073,1575398074,0.701400757,1575398070,1575398073,,,S1,1,64,M,Expert Radiologist,2019_Dec_03_1223,AdjustEyeTrack,3.1.5,59.69175547
49,Stimuli/Morph49.JPG,Stimuli/Morph49.png,Stimuli/BlurLevel5/BlurEditedMorph49,Stimuli/BlurLevel5/BlurEditedMorph49.png,Stimuli/BlurLevel5/NumberedMorphs/BlurEditedMorph49.png,Stimuli/BlurLevel5/OriginalBlur/BlurEditedMorph49.png,Stimuli/BlurMorphTrio/EditedMorph49.png,010135right.gif,Stimuli/normal_thumbnails/49right.gif,,,,,1,0,1,0,0,0,0,48,,,,,,,,,,,,,,,,,,,,,,,98,1,2,28,2.207368982,1.173678907,49,Experiment,,,,,,,,,39,39,10,10,,,,,,,,,,,,,,,734.0040169,734.5218172,734.0040169,734.5218172,86.39455782,1575398091,1575398097,5.836249828,1575398088,1575398091,space,13.66938743,S1,1,64,M,Expert Radiologist,2019_Dec_03_1223,AdjustEyeTrack,3.1.5,59.69175547
96,Stimuli/Morph96.JPG,Stimuli/Morph96.png,Stimuli/BlurLevel5/BlurEditedMorph96,Stimuli/BlurLevel5/BlurEditedMorph96.png,Stimuli/BlurLevel5/NumberedMorphs/BlurEditedMorph96.png,Stimuli/BlurLevel5/OriginalBlur/BlurEditedMorph96.png,Stimuli/BlurMorphTrio/EditedMorph96.png,020292right.gif,Stimuli/normal_thumbnails/96right.gif,,,,,1,0,1,0,0,1,1,95,,,,,,,,,,,,,,,,,,,,,,,45,2,2,348,2.445369002,-0.519779227,96,Experiment,,,,,,,,,7,91,5,5,,,,,,,,,,,,,,,742.2885096,742.8190568,742.2885096,742.8190568,93.19727891,1575398099,1575398102,2.632893085,1575398097,1575398099,,,S1,1,64,M,Expert Radiologist,2019_Dec_03_1223,AdjustEyeTrack,3.1.5,59.69175547
100,Stimuli/Morph100.JPG,Stimuli/Morph100.png,Stimuli/BlurLevel5/BlurEditedMorph100,Stimuli/BlurLevel5/BlurEditedMorph100.png,Stimuli/BlurLevel5/NumberedMorphs/BlurEditedMorph100.png,Stimuli/BlurLevel5/OriginalBlur/BlurEditedMorph100.png,Stimuli/BlurMorphTrio/EditedMorph100.png,020297right.gif,Stimuli/normal_thumbnails/100right.gif,,,,,1,0,1,0,0,2,2,99,,,,,,,,,,,,,,,,,,,,,,,77,3,2,43,1.828384254,1.7049959,100,Experiment,,,,,,,,,89,89,11,11,,,,,,,,,,,,,,,747.737664,748.2521712,747.737664,748.2521712,85.03401361,1575398104,1575398105,0.666016102,1575398102,1575398104,,,S1,1,64,M,Expert Radiologist,2019_Dec_03_1223,AdjustEyeTrack,3.1.5,59.69175547
55,Stimuli/Morph55.JPG,Stimuli/Morph55.png,Stimuli/BlurLevel5/BlurEditedMorph55,Stimuli/BlurLevel5/BlurEditedMorph55.png,Stimuli/BlurLevel5/NumberedMorphs/BlurEditedMorph55.png,Stimuli/BlurLevel5/OriginalBlur/BlurEditedMorph55.png,Stimuli/BlurMorphTrio/EditedMorph55.png,010151right.gif,Stimuli/normal_thumbnails/55right.gif,,,,,1,0,1,0,0,3,3,54,,,,,,,,,,,,,,,,,,,,,,,93,4,2,287,0.730929262,-2.39076189,55,Experiment,,,,,,,,,77,77,-22,-22,,,,,,,,,,,,,,,752.1891363,752.6859892,752.1891363,752.6859892,70.06802721,1575398109,1575398111,2.116991997,1575398105,1575398109,,,S1,1,64,M,Expert Radiologist,2019_Dec_03_1223,AdjustEyeTrack,3.1.5,59.69175547
112,Stimuli/Morph112.JPG,Stimuli/Morph112.png,Stimuli/BlurLevel5/BlurEditedMorph112,Stimuli/BlurLevel5/BlurEditedMorph112.png,Stimuli/BlurLevel5/NumberedMorphs/BlurEditedMorph112.png,Stimuli/BlurLevel5/OriginalBlur/BlurEditedMorph112.png,Stimuli/BlurMorphTrio/EditedMorph112.png,None,None,,,,,1,0,1,0,0,4,4,111,,,,,,,,,,,,,,,,,,,,,,,36,5,2,164,-2.40315424,0.68909339,112,Experiment,,,,,,,,,76,99,13,13,,,,,,,,,,,,,,,756.9681891,757.4681001,756.9681891,757.4681001,82.31292517,1575398114,1575398115,1.46785903,1575398111,1575398114,,,S1,1,64,M,Expert Radiologist,2019_Dec_03_1223,AdjustEyeTrack,3.1.5,59.69175547
70,Stimuli/Morph70.JPG,Stimuli/Morph70.png,Stimuli/BlurLevel5/BlurEditedMorph70,Stimuli/BlurLevel5/BlurEditedMorph70.png,Stimuli/BlurLevel5/NumberedMorphs/BlurEditedMorph70.png,Stimuli/BlurLevel5/OriginalBlur/BlurEditedMorph70.png,Stimuli/BlurMorphTrio/EditedMorph70.png,020221right.gif,Stimuli/normal_thumbnails/70right.gif,,,,,1,0,1,0,0,5,5,69,,,,,,,,,,,,,,,,,,,,,,,71,6,2,214,-2.072593931,-1.397982259,70,Experiment,,,,,,,,,139,83,-13,-13,,,,,,,,,,,,,,,761.1180298,761.6185837,761.1180298,761.6185837,82.31292517,1575398118,1575398121,3.383973122,1575398115,1575398118,,,S1,1,64,M,Expert Radiologist,2019_Dec_03_1223,AdjustEyeTrack,3.1.5,59.69175547
44,Stimuli/Morph44.JPG,Stimuli/Morph44.png,Stimuli/BlurLevel5/BlurEditedMorph44,Stimuli/BlurLevel5/BlurEditedMorph44.png,Stimuli/BlurLevel5/NumberedMorphs/BlurEditedMorph44.png,Stimuli/BlurLevel5/OriginalBlur/BlurEditedMorph44.png,Stimuli/BlurMorphTrio/EditedMorph44.png,010126right.gif,Stimuli/normal_thumbnails/44right.gif,,,,,1,0,1,0,0,6,6,43,,,,,,,,,,,,,,,,,,,,,,,86,7,2,23,2.301262134,0.976827821,44,Experiment,,,,,,,,,117,49,-5,-5,,,,,,,,,,,,,,,767.442725,767.9344013,767.442725,767.9344013,93.19727891,1575398124,1575398126,2.150184155,1575398121,1575398124,,,S1,1,64,M,Expert Radiologist,2019_Dec_03_1223,AdjustEyeTrack,3.1.5,59.69175547
103,Stimuli/Morph103.JPG,Stimuli/Morph103.png,Stimuli/BlurLevel5/BlurEditedMorph103,Stimuli/BlurLevel5/BlurEditedMorph103.png,Stimuli/BlurLevel5/NumberedMorphs/BlurEditedMorph103.png,Stimuli/BlurLevel5/OriginalBlur/BlurEditedMorph103.png,Stimuli/BlurMorphTrio/EditedMorph103.png,None,None,,,,,1,0,1,0,0,7,7,102,,,,,,,,,,,,,,,,,,,,,,,100,8,2,276,0.261321158,-2.486304738,103,Experiment,,,,,,,,,95,95,8,8,,,,,,,,,,,,,,,772.3202717,772.8175952,772.3202717,772.8175952,89.11564626,1575398129,1575398130,0.651247025,1575398127,1575398129,,,S1,1,64,M,Expert Radiologist,2019_Dec_03_1223,AdjustEyeTrack,3.1.5,59.69175547
4,Stimuli/Morph4.JPG,Stimuli/Morph4.png,Stimuli/BlurLevel5/BlurEditedMorph4,Stimuli/BlurLevel5/BlurEditedMorph4.png,Stimuli/BlurLevel5/NumberedMorphs/BlurEditedMorph4.png,Stimuli/BlurLevel5/OriginalBlur/BlurEditedMorph4.png,Stimuli/BlurMorphTrio/EditedMorph4.png,010010right.gif,Stimuli/normal_thumbnails/4right.gif,,,,,1,0,1,0,0,8,8,3,,,,,,,,,,,,,,,,,,,,,,,53,9,2,2,2.498477068,0.087248742,4,Experiment,,,,,,,,,71,134,-130,17,,,,,,,,,,,,,,,776.1302928,776.8352857,776.1302928,776.8352857,76.8707483,1575398133,1575398135,2.099058151,1575398130,1575398133,,,S1,1,64,M,Expert Radiologist,2019_Dec_03_1223,AdjustEyeTrack,3.1.5,59.69175547
109,Stimuli/Morph109.JPG,Stimuli/Morph109.png,Stimuli/BlurLevel5/BlurEditedMorph109,Stimuli/BlurLevel5/BlurEditedMorph109.png,Stimuli/BlurLevel5/NumberedMorphs/BlurEditedMorph109.png,Stimuli/BlurLevel5/OriginalBlur/BlurEditedMorph109.png,Stimuli/BlurMorphTrio/EditedMorph109.png,None,None,,,,,1,0,1,0,0,9,9,108,,,,,,,,,,,,,,,,,,,,,,,25,10,2,321,1.942864904,-1.573300978,109,Experiment,,,,,,,,,6,96,13,13,,,,,,,,,,,,,,,780.871426,781.3681676,780.871426,781.3681676,82.31292517,1575398138,1575398140,2.184811831,1575398135,1575398138,,,S1,1,64,M,Expert Radiologist,2019_Dec_03_1223,AdjustEyeTrack,3.1.5,59.69175547
20,Stimuli/Morph20.JPG,Stimuli/Morph20.png,Stimuli/BlurLevel5/BlurEditedMorph20,Stimuli/BlurLevel5/BlurEditedMorph20.png,Stimuli/BlurLevel5/NumberedMorphs/BlurEditedMorph20.png,Stimuli/BlurLevel5/OriginalBlur/BlurEditedMorph20.png,Stimuli/BlurMorphTrio/EditedMorph20.png,010046right.gif,Stimuli/normal_thumbnails/20right.gif,,,,,1,0,1,0,0,10,10,19,,,,,,,,,,,,,,,,,,,,,,,36,11,2,155,-2.265769468,1.056545654,20,Experiment,,,,,,,,,97,22,-2,-2,,,,,,,,,,,,,,,785.9178343,786.4178194,785.9178343,786.4178194,97.27891156,1575398143,1575398145,2.053642988,1575398140,1575398143,,,S1,1,64,M,Expert Radiologist,2019_Dec_03_1223,AdjustEyeTrack,3.1.5,59.69175547
80,Stimuli/Morph80.JPG,Stimuli/Morph80.png,Stimuli/BlurLevel5/BlurEditedMorph80,Stimuli/BlurLevel5/BlurEditedMorph80.png,Stimuli/BlurLevel5/NumberedMorphs/BlurEditedMorph80.png,Stimuli/BlurLevel5/OriginalBlur/BlurEditedMorph80.png,Stimuli/BlurMorphTrio/EditedMorph80.png,020240right.gif,Stimuli/normal_thumbnails/80right.gif,,,,,1,0,1,0,0,11,11,79,,,,,,,,,,,,,,,,,,,,,,,48,12,2,359,2.499619238,-0.043631016,80,Experiment,,,,,,,,,13,94,-14,-14,,,,,,,,,,,,,,,790.4363468,790.9346229,790.4363468,790.9346229,80.95238095,1575398147,1575398149,2.082671881,1575398145,1575398147,,,S1,1,64,M,Expert Radiologist,2019_Dec_03_1223,AdjustEyeTrack,3.1.5,59.69175547
2,Stimuli/Morph2.JPG,Stimuli/Morph2.png,Stimuli/BlurLevel5/BlurEditedMorph2,Stimuli/BlurLevel5/BlurEditedMorph2.png,Stimuli/BlurLevel5/NumberedMorphs/BlurEditedMorph2.png,Stimuli/BlurLevel5/OriginalBlur/BlurEditedMorph2.png,Stimuli/BlurMorphTrio/EditedMorph2.png,010006right.gif,Stimuli/normal_thumbnails/2right.gif,,,,,1,0,1,0,0,12,12,1,,,,,,,,,,,,,,,,,,,,,,,3,13,2,43,1.828384254,1.7049959,2,Experiment,,,,,,,,,130,130,-128,19,,,,,,,,,,,,,,,795.5565732,796.0512916,795.5565732,796.0512916,74.14965986,1575398152,1575398153,1.050398111,1575398150,1575398152,,,S1,1,64,M,Expert Radiologist,2019_Dec_03_1223,AdjustEyeTrack,3.1.5,59.69175547
74,Stimuli/Morph74.JPG,Stimuli/Morph74.png,Stimuli/BlurLevel5/BlurEditedMorph74,Stimuli/BlurLevel5/BlurEditedMorph74.png,Stimuli/BlurLevel5/NumberedMorphs/BlurEditedMorph74.png,Stimuli/BlurLevel5/OriginalBlur/BlurEditedMorph74.png,Stimuli/BlurMorphTrio/EditedMorph74.png,020232right.gif,Stimuli/normal_thumbnails/74right.gif,,,,,1,0,1,0,0,13,13,73,,,,,,,,,,,,,,,,,,,,,,,71,14,2,282,0.519779227,-2.445369002,74,Experiment,,,,,,,,,141,89,-15,-15,,,,,,,,,,,,,,,799.2748252,799.7675994,799.2748252,799.7675994,79.59183673,1575398156,1575398163,7.201462984,1575398154,1575398156,,,S1,1,64,M,Expert Radiologist,2019_Dec_03_1223,AdjustEyeTrack,3.1.5,59.69175547
131,Stimuli/Morph131.JPG,Stimuli/Morph131.png,Stimuli/BlurLevel5/BlurEditedMorph131,Stimuli/BlurLevel5/BlurEditedMorph131.png,Stimuli/BlurLevel5/NumberedMorphs/BlurEditedMorph131.png,Stimuli/BlurLevel5/OriginalBlur/BlurEditedMorph131.png,Stimuli/BlurMorphTrio/EditedMorph131.png,None,None,,,,,1,0,1,0,0,14,14,130,,,,,,,,,,,,,,,,,,,,,,,8,15,2,350,2.462019383,-0.434120444,131,Experiment,,,,,,,,,128,128,3,3,,,,,,,,,,,,,,,809.3521539,809.8508865,809.3521539,809.8508865,95.91836735,1575398166,1575398167,0.69811821,1575398163,1575398166,,,S1,1,64,M,Expert Radiologist,2019_Dec_03_1223,AdjustEyeTrack,3.1.5,59.69175547
120,Stimuli/Morph120.JPG,Stimuli/Morph120.png,Stimuli/BlurLevel5/BlurEditedMorph120,Stimuli/BlurLevel5/BlurEditedMorph120.png,Stimuli/BlurLevel5/NumberedMorphs/BlurEditedMorph120.png,Stimuli/BlurLevel5/OriginalBlur/BlurEditedMorph120.png,Stimuli/BlurMorphTrio/EditedMorph120.png,None,None,,,,,1,0,1,0,0,15,15,119,,,,,,,,,,,,,,,,,,,,,,,36,16,2,78,0.519779227,2.445369002,120,Experiment,,,,,,,,,40,129,-9,-9,,,,,,,,,,,,,,,812.8358715,813.3337221,812.8358715,813.3337221,87.75510204,1575398170,1575398172,2.566572905,1575398167,1575398170,,,S1,1,64,M,Expert Radiologist,2019_Dec_03_1223,AdjustEyeTrack,3.1.5,59.69175547
32,Stimuli/Morph32.JPG,Stimuli/Morph32.png,Stimuli/BlurLevel5/BlurEditedMorph32,Stimuli/BlurLevel5/BlurEditedMorph32.png,Stimuli/BlurLevel5/NumberedMorphs/BlurEditedMorph32.png,Stimuli/BlurLevel5/OriginalBlur/BlurEditedMorph32.png,Stimuli/BlurMorphTrio/EditedMorph32.png,010080right.gif,Stimuli/normal_thumbnails/32right.gif,,,,,1,0,1,0,0,16,16,31,,,,,,,,,,,,,,,,,,,,,,,38,17,2,359,2.499619238,-0.043631016,32,Experiment,,,,,,,,,117,140,-108,39,,,,,,,,,,,,,,,817.956026,818.4503294,817.956026,818.4503294,46.93877551,1575398175,1575398176,1.164999008,1575398172,1575398175,,,S1,1,64,M,Expert Radiologist,2019_Dec_03_1223,AdjustEyeTrack,3.1.5,59.69175547
137,Stimuli/Morph137.JPG,Stimuli/Morph137.png,Stimuli/BlurLevel5/BlurEditedMorph137,Stimuli/BlurLevel5/BlurEditedMorph137.png,Stimuli/BlurLevel5/NumberedMorphs/BlurEditedMorph137.png,Stimuli/BlurLevel5/OriginalBlur/BlurEditedMorph137.png,Stimuli/BlurMorphTrio/EditedMorph137.png,None,None,,,,,1,0,1,0,0,17,17,136,,,,,,,,,,,,,,,,,,,,,,,2,18,2,261,-0.391086163,-2.469220851,137,Experiment,,,,,,,,,25,139,-2,-2,,,,,,,,,,,,,,,821.7672441,822.3012251,821.7672441,822.3012251,97.27891156,1575398179,1575398182,3.834671736,1575398176,1575398179,,,S1,1,64,M,Expert Radiologist,2019_Dec_03_1223,AdjustEyeTrack,3.1.5,59.69175547
21,Stimuli/Morph21.JPG,Stimuli/Morph21.png,Stimuli/BlurLevel5/BlurEditedMorph21,Stimuli/BlurLevel5/BlurEditedMorph21.png,Stimuli/BlurLevel5/NumberedMorphs/BlurEditedMorph21.png,Stimuli/BlurLevel5/OriginalBlur/BlurEditedMorph21.png,Stimuli/BlurMorphTrio/EditedMorph21.png,010049right.gif,Stimuli/normal_thumbnails/21right.gif,,,,,1,0,1,0,0,18,18,20,,,,,,,,,,,,,,,,,,,,,,,83,19,2,283,0.562377636,-2.435925162,21,Experiment,,,,,,,,,14,14,7,7,,,,,,,,,,,,,,,828.6577301,829.1496917,828.6577301,829.1496917,90.47619048,1575398185,1575398186,0.617716074,1575398183,1575398185,,,S1,1,64,M,Expert Radiologist,2019_Dec_03_1223,AdjustEyeTrack,3.1.5,59.69175547
19,Stimuli/Morph19.JPG,Stimuli/Morph19.png,Stimuli/BlurLevel5/BlurEditedMorph19,Stimuli/BlurLevel5/BlurEditedMorph19.png,Stimuli/BlurLevel5/NumberedMorphs/BlurEditedMorph19.png,Stimuli/BlurLevel5/OriginalBlur/BlurEditedMorph19.png,Stimuli/BlurMorphTrio/EditedMorph19.png,010045right.gif,Stimuli/normal_thumbnails/19right.gif,,,,,1,0,1,0,0,19,19,18,,,,,,,,,,,,,,,,,,,,,,,76,20,2,246,-1.016841608,-2.283863644,19,Experiment,,,,,,,,,136,136,-117,30,,,,,,,,,,,,,,,831.6737004,832.1668993,831.6737004,832.1668993,59.18367347,1575398188,1575398189,0.666721821,1575398186,1575398188,,,S1,1,64,M,Expert Radiologist,2019_Dec_03_1223,AdjustEyeTrack,3.1.5,59.69175547
58,Stimuli/Morph58.JPG,Stimuli/Morph58.png,Stimuli/BlurLevel5/BlurEditedMorph58,Stimuli/BlurLevel5/BlurEditedMorph58.png,Stimuli/BlurLevel5/NumberedMorphs/BlurEditedMorph58.png,Stimuli/BlurLevel5/OriginalBlur/BlurEditedMorph58.png,Stimuli/BlurMorphTrio/EditedMorph58.png,010159right.gif,Stimuli/normal_thumbnails/58right.gif,,,,,1,0,1,0,0,20,20,57,,,,,,,,,,,,,,,,,,,,,,,60,21,2,217,-1.996588775,-1.504537558,58,Experiment,,,,,,,,,63,63,-5,-5,,,,,,,,,,,,,,,835.3520824,835.8510509,835.3520824,835.8510509,93.19727891,1575398192,1575398193,0.716711283,1575398189,1575398192,,,S1,1,64,M,Expert Radiologist,2019_Dec_03_1223,AdjustEyeTrack,3.1.5,59.69175547
51,Stimuli/Morph51.JPG,Stimuli/Morph51.png,Stimuli/BlurLevel5/BlurEditedMorph51,Stimuli/BlurLevel5/BlurEditedMorph51.png,Stimuli/BlurLevel5/NumberedMorphs/BlurEditedMorph51.png,Stimuli/BlurLevel5/OriginalBlur/BlurEditedMorph51.png,Stimuli/BlurMorphTrio/EditedMorph51.png,010146right.gif,Stimuli/normal_thumbnails/51right.gif,,,,,1,0,1,0,0,21,21,50,,,,,,,,,,,,,,,,,,,,,,,64,22,2,199,-2.363796439,-0.813920386,51,Experiment,,,,,,,,,18,42,9,9,,,,,,,,,,,,,,,838.6862926,839.1835932,838.6862926,839.1835932,87.75510204,1575398195,1575398197,1.415981054,1575398193,1575398195,,,S1,1,64,M,Expert Radiologist,2019_Dec_03_1223,AdjustEyeTrack,3.1.5,59.69175547
15,Stimuli/Morph15.JPG,Stimuli/Morph15.png,Stimuli/BlurLevel5/BlurEditedMorph15,Stimuli/BlurLevel5/BlurEditedMorph15.png,Stimuli/BlurLevel5/NumberedMorphs/BlurEditedMorph15.png,Stimuli/BlurLevel5/OriginalBlur/BlurEditedMorph15.png,Stimuli/BlurMorphTrio/EditedMorph15.png,010031right.gif,Stimuli/normal_thumbnails/15right.gif,,,,,1,0,1,0,0,22,22,14,,,,,,,,,,,,,,,,,,,,,,,76,23,2,262,-0.347932752,-2.475670172,15,Experiment,,,,,,,,,126,126,-111,36,,,,,,,,,,,,,,,842.2544444,842.7500233,842.2544444,842.7500233,51.02040816,1575398199,1575398200,0.832942009,1575398197,1575398199,,,S1,1,64,M,Expert Radiologist,2019_Dec_03_1223,AdjustEyeTrack,3.1.5,59.69175547
77,Stimuli/Morph77.JPG,Stimuli/Morph77.png,Stimuli/BlurLevel5/BlurEditedMorph77,Stimuli/BlurLevel5/BlurEditedMorph77.png,Stimuli/BlurLevel5/NumberedMorphs/BlurEditedMorph77.png,Stimuli/BlurLevel5/OriginalBlur/BlurEditedMorph77.png,Stimuli/BlurMorphTrio/EditedMorph77.png,020235right.gif,Stimuli/normal_thumbnails/77right.gif,,,,,1,0,1,0,0,23,23,76,,,,,,,,,,,,,,,,,,,,,,,71,24,2,84,0.261321158,2.486304738,77,Experiment,,,,,,,,,118,118,-41,-41,,,,,,,,,,,,,,,845.4204184,845.9180434,845.4204184,845.9180434,44.21768707,1575398202,1575398203,0.636961937,1575398200,1575398202,,,S1,1,64,M,Expert Radiologist,2019_Dec_03_1223,AdjustEyeTrack,3.1.5,59.69175547
92,Stimuli/Morph92.JPG,Stimuli/Morph92.png,Stimuli/BlurLevel5/BlurEditedMorph92,Stimuli/BlurLevel5/BlurEditedMorph92.png,Stimuli/BlurLevel5/NumberedMorphs/BlurEditedMorph92.png,Stimuli/BlurLevel5/OriginalBlur/BlurEditedMorph92.png,Stimuli/BlurMorphTrio/EditedMorph92.png,020277right.gif,Stimuli/normal_thumbnails/92right.gif,,,,,1,0,1,0,0,24,24,91,,,,,,,,,,,,,,,,,,,,,,,58,25,2,330,2.165063509,-1.25,92,Experiment,,,,,,,,,39,88,4,4,,,,,,,,,,,,,,,848.4862858,848.9828414,848.4862858,848.9828414,94.55782313,1575398205,1575398207,1.866342068,1575398203,1575398205,,,S1,1,64,M,Expert Radiologist,2019_Dec_03_1223,AdjustEyeTrack,3.1.5,59.69175547
12,Stimuli/Morph12.JPG,Stimuli/Morph12.png,Stimuli/BlurLevel5/BlurEditedMorph12,Stimuli/BlurLevel5/BlurEditedMorph12.png,Stimuli/BlurLevel5/NumberedMorphs/BlurEditedMorph12.png,Stimuli/BlurLevel5/OriginalBlur/BlurEditedMorph12.png,Stimuli/BlurMorphTrio/EditedMorph12.png,010026right.gif,Stimuli/normal_thumbnails/12right.gif,,,,,1,0,1,0,0,25,25,11,,,,,,,,,,,,,,,,,,,,,,,65,26,2,302,1.324798161,-2.12012024,12,Experiment,,,,,,,,,48,128,-116,31,,,,,,,,,,,,,,,853.2900447,853.7833784,853.2900447,853.7833784,57.82312925,1575398210,1575398212,2.384022951,1575398207,1575398210,,,S1,1,64,M,Expert Radiologist,2019_Dec_03_1223,AdjustEyeTrack,3.1.5,59.69175547
27,Stimuli/Morph27.JPG,Stimuli/Morph27.png,Stimuli/BlurLevel5/BlurEditedMorph27,Stimuli/BlurLevel5/BlurEditedMorph27.png,Stimuli/BlurLevel5/NumberedMorphs/BlurEditedMorph27.png,Stimuli/BlurLevel5/OriginalBlur/BlurEditedMorph27.png,Stimuli/BlurMorphTrio/EditedMorph27.png,010072right.gif,Stimuli/normal_thumbnails/27right.gif,,,,,1,0,1,0,0,26,26,26,,,,,,,,,,,,,,,,,,,,,,,34,27,2,311,1.640147572,-1.886773951,27,Experiment,,,,,,,,,146,146,-119,28,,,,,,,,,,,,,,,858.9025718,859.4000223,858.9025718,859.4000223,61.9047619,1575398216,1575398216,0.601077795,1575398213,1575398216,,,S1,1,64,M,Expert Radiologist,2019_Dec_03_1223,AdjustEyeTrack,3.1.5,59.69175547
106,Stimuli/Morph106.JPG,Stimuli/Morph106.png,Stimuli/BlurLevel5/BlurEditedMorph106,Stimuli/BlurLevel5/BlurEditedMorph106.png,Stimuli/BlurLevel5/NumberedMorphs/BlurEditedMorph106.png,Stimuli/BlurLevel5/OriginalBlur/BlurEditedMorph106.png,Stimuli/BlurMorphTrio/EditedMorph106.png,None,None,,,,,1,0,1,0,0,27,27,105,,,,,,,,,,,,,,,,,,,,,,,2,28,2,117,-1.134976249,2.22751631,106,Experiment,,,,,,,,,110,110,-4,-4,,,,,,,,,,,,,,,862.2398029,862.7353113,862.2398029,862.7353113,94.55782313,1575398219,1575398220,0.616970062,1575398217,1575398219,,,S1,1,64,M,Expert Radiologist,2019_Dec_03_1223,AdjustEyeTrack,3.1.5,59.69175547
146,Stimuli/Morph146.JPG,Stimuli/Morph146.png,Stimuli/BlurLevel5/BlurEditedMorph146,Stimuli/BlurLevel5/BlurEditedMorph146.png,Stimuli/BlurLevel5/NumberedMorphs/BlurEditedMorph146.png,Stimuli/BlurLevel5/OriginalBlur/BlurEditedMorph146.png,Stimuli/BlurMorphTrio/EditedMorph146.png,None,None,,,,,1,0,1,0,0,28,28,145,,,,,,,,,,,,,,,,,,,,,,,85,29,2,172,-2.475670172,0.347932752,146,Experiment,,,,,,,,,95,142,4,4,,,,,,,,,,,,,,,865.4351615,865.9338953,865.4351615,865.9338953,94.55782313,1575398222,1575398224,1.66682291,1575398220,1575398222,,,S1,1,64,M,Expert Radiologist,2019_Dec_03_1223,AdjustEyeTrack,3.1.5,59.69175547
116,Stimuli/Morph116.JPG,Stimuli/Morph116.png,Stimuli/BlurLevel5/BlurEditedMorph116,Stimuli/BlurLevel5/BlurEditedMorph116.png,Stimuli/BlurLevel5/NumberedMorphs/BlurEditedMorph116.png,Stimuli/BlurLevel5/OriginalBlur/BlurEditedMorph116.png,Stimuli/BlurMorphTrio/EditedMorph116.png,None,None,,,,,1,0,1,0,0,29,29,115,,,,,,,,,,,,,,,,,,,,,,,19,30,2,45,1.767766953,1.767766953,116,Experiment,,,,,,,,,140,90,26,26,,,,,,,,,,,,,,,869.8467519,870.3498075,869.8467519,870.3498075,64.62585034,1575398227,1575398230,3.216847181,1575398224,1575398227,,,S1,1,64,M,Expert Radiologist,2019_Dec_03_1223,AdjustEyeTrack,3.1.5,59.69175547
134,Stimuli/Morph134.JPG,Stimuli/Morph134.png,Stimuli/BlurLevel5/BlurEditedMorph134,Stimuli/BlurLevel5/BlurEditedMorph134.png,Stimuli/BlurLevel5/NumberedMorphs/BlurEditedMorph134.png,Stimuli/BlurLevel5/OriginalBlur/BlurEditedMorph134.png,Stimuli/BlurMorphTrio/EditedMorph134.png,None,None,,,,,1,0,1,0,0,30,30,133,,,,,,,,,,,,,,,,,,,,,,,85,31,2,264,-0.261321158,-2.486304738,134,Experiment,,,,,,,,,134,134,0,0,,,,,,,,,,,,,,,875.5422332,876.0335732,875.5422332,876.0335732,100,1575398232,1575398233,0.632781029,1575398230,1575398232,,,S1,1,64,M,Expert Radiologist,2019_Dec_03_1223,AdjustEyeTrack,3.1.5,59.69175547
97,Stimuli/Morph97.JPG,Stimuli/Morph97.png,Stimuli/BlurLevel5/BlurEditedMorph97,Stimuli/BlurLevel5/BlurEditedMorph97.png,Stimuli/BlurLevel5/NumberedMorphs/BlurEditedMorph97.png,Stimuli/BlurLevel5/OriginalBlur/BlurEditedMorph97.png,Stimuli/BlurMorphTrio/EditedMorph97.png,020294right.gif,Stimuli/normal_thumbnails/97right.gif,,,,,1,0,1,0,0,31,31,96,,,,,,,,,,,,,,,,,,,,,,,33,32,2,286,0.68909339,-2.40315424,97,Experiment,,,,,,,,,91,91,6,6,,,,,,,,,,,,,,,878.9441429,879.4328197,878.9441429,879.4328197,91.83673469,1575398236,1575398236,0.566796064,1575398233,1575398236,,,S1,1,64,M,Expert Radiologist,2019_Dec_03_1223,AdjustEyeTrack,3.1.5,59.69175547
28,Stimuli/Morph28.JPG,Stimuli/Morph28.png,Stimuli/BlurLevel5/BlurEditedMorph28,Stimuli/BlurLevel5/BlurEditedMorph28.png,Stimuli/BlurLevel5/NumberedMorphs/BlurEditedMorph28.png,Stimuli/BlurLevel5/OriginalBlur/BlurEditedMorph28.png,Stimuli/BlurMorphTrio/EditedMorph28.png,010073right.gif,Stimuli/normal_thumbnails/28right.gif,,,,,1,0,1,0,0,32,32,27,,,,,,,,,,,,,,,,,,,,,,,9,33,2,21,2.333951066,0.895919874,28,Experiment,,,,,,,,,121,130,-102,45,,,,,,,,,,,,,,,881.8535183,882.3499174,881.8535183,882.3499174,38.7755102,1575398239,1575398240,1.49904108,1575398237,1575398239,,,S1,1,64,M,Expert Radiologist,2019_Dec_03_1223,AdjustEyeTrack,3.1.5,59.69175547
89,Stimuli/Morph89.JPG,Stimuli/Morph89.png,Stimuli/BlurLevel5/BlurEditedMorph89,Stimuli/BlurLevel5/BlurEditedMorph89.png,Stimuli/BlurLevel5/NumberedMorphs/BlurEditedMorph89.png,Stimuli/BlurLevel5/OriginalBlur/BlurEditedMorph89.png,Stimuli/BlurMorphTrio/EditedMorph89.png,020273right.gif,Stimuli/normal_thumbnails/89right.gif,,,,,1,0,1,0,0,33,33,88,,,,,,,,,,,,,,,,,,,,,,,95,34,2,129,-1.573300978,1.942864904,89,Experiment,,,,,,,,,85,97,-8,-8,,,,,,,,,,,,,,,886.2527841,886.7660385,886.2527841,886.7660385,89.11564626,1575398243,1575398245,1.615770102,1575398240,1575398243,,,S1,1,64,M,Expert Radiologist,2019_Dec_03_1223,AdjustEyeTrack,3.1.5,59.69175547
73,Stimuli/Morph73.JPG,Stimuli/Morph73.png,Stimuli/BlurLevel5/BlurEditedMorph73,Stimuli/BlurLevel5/BlurEditedMorph73.png,Stimuli/BlurLevel5/NumberedMorphs/BlurEditedMorph73.png,Stimuli/BlurLevel5/OriginalBlur/BlurEditedMorph73.png,Stimuli/BlurMorphTrio/EditedMorph73.png,020230right.gif,Stimuli/normal_thumbnails/73right.gif,,,,,1,0,1,0,0,34,34,72,,,,,,,,,,,,,,,,,,,,,,,59,35,2,180,-2.5,3.06E-16,73,Experiment,,,,,,,,,39,24,49,49,,,,,,,,,,,,,,,890.166167,890.6665088,890.166167,890.6665088,33.33333333,1575398247,1575398261,13.8831811,1575398245,1575398247,,,S1,1,64,M,Expert Radiologist,2019_Dec_03_1223,AdjustEyeTrack,3.1.5,59.69175547
67,Stimuli/Morph67.JPG,Stimuli/Morph67.png,Stimuli/BlurLevel5/BlurEditedMorph67,Stimuli/BlurLevel5/BlurEditedMorph67.png,Stimuli/BlurLevel5/NumberedMorphs/BlurEditedMorph67.png,Stimuli/BlurLevel5/OriginalBlur/BlurEditedMorph67.png,Stimuli/BlurMorphTrio/EditedMorph67.png,020217right.gif,Stimuli/normal_thumbnails/67right.gif,,,,,1,0,1,0,0,35,35,66,,,,,,,,,,,,,,,,,,,,,,,4,36,2,173,-2.481365379,0.304673359,67,Experiment,,,,,,,,,35,74,-7,-7,,,,,,,,,,,,,,,906.6551976,907.1494094,906.6551976,907.1494094,90.47619048,1575398263,1575398265,1.63241291,1575398261,1575398263,,,S1,1,64,M,Expert Radiologist,2019_Dec_03_1223,AdjustEyeTrack,3.1.5,59.69175547
64,Stimuli/Morph64.JPG,Stimuli/Morph64.png,Stimuli/BlurLevel5/BlurEditedMorph64,Stimuli/BlurLevel5/BlurEditedMorph64.png,Stimuli/BlurLevel5/NumberedMorphs/BlurEditedMorph64.png,Stimuli/BlurLevel5/OriginalBlur/BlurEditedMorph64.png,Stimuli/BlurMorphTrio/EditedMorph64.png,020208right.gif,Stimuli/normal_thumbnails/64right.gif,,,,,1,0,1,0,0,36,36,63,,,,,,,,,,,,,,,,,,,,,,,84,37,2,239,-1.287595187,-2.142918252,64,Experiment,,,,,,,,,101,83,-19,-19,,,,,,,,,,,,,,,910.6832999,911.1832346,910.6832999,911.1832346,74.14965986,1575398267,1575398271,3.351089954,1575398265,1575398267,,,S1,1,64,M,Expert Radiologist,2019_Dec_03_1223,AdjustEyeTrack,3.1.5,59.69175547
108,Stimuli/Morph108.JPG,Stimuli/Morph108.png,Stimuli/BlurLevel5/BlurEditedMorph108,Stimuli/BlurLevel5/BlurEditedMorph108.png,Stimuli/BlurLevel5/NumberedMorphs/BlurEditedMorph108.png,Stimuli/BlurLevel5/OriginalBlur/BlurEditedMorph108.png,Stimuli/BlurMorphTrio/EditedMorph108.png,None,None,,,,,1,0,1,0,0,37,37,107,,,,,,,,,,,,,,,,,,,,,,,14,38,2,135,-1.767766953,1.767766953,108,Experiment,,,,,,,,,23,96,12,12,,,,,,,,,,,,,,,916.8948778,917.3996724,916.8948778,917.3996724,83.67346939,1575398274,1575398276,1.916851997,1575398271,1575398274,,,S1,1,64,M,Expert Radiologist,2019_Dec_03_1223,AdjustEyeTrack,3.1.5,59.69175547
95,Stimuli/Morph95.JPG,Stimuli/Morph95.png,Stimuli/BlurLevel5/BlurEditedMorph95,Stimuli/BlurLevel5/BlurEditedMorph95.png,Stimuli/BlurLevel5/NumberedMorphs/BlurEditedMorph95.png,Stimuli/BlurLevel5/OriginalBlur/BlurEditedMorph95.png,Stimuli/BlurMorphTrio/EditedMorph95.png,020287right.gif,Stimuli/normal_thumbnails/95right.gif,,,,,1,0,1,0,0,38,38,94,,,,,,,,,,,,,,,,,,,,,,,12,39,2,28,2.207368982,1.173678907,95,Experiment,,,,,,,,,113,113,-18,-18,,,,,,,,,,,,,,,922.01871,922.5158516,922.01871,922.5158516,75.51020408,1575398279,1575398279,0.564757824,1575398276,1575398279,,,S1,1,64,M,Expert Radiologist,2019_Dec_03_1223,AdjustEyeTrack,3.1.5,59.69175547
115,Stimuli/Morph115.JPG,Stimuli/Morph115.png,Stimuli/BlurLevel5/BlurEditedMorph115,Stimuli/BlurLevel5/BlurEditedMorph115.png,Stimuli/BlurLevel5/NumberedMorphs/BlurEditedMorph115.png,Stimuli/BlurLevel5/OriginalBlur/BlurEditedMorph115.png,Stimuli/BlurMorphTrio/EditedMorph115.png,None,None,,,,,1,0,1,0,0,39,39,114,,,,,,,,,,,,,,,,,,,,,,,39,40,2,81,0.391086163,2.469220851,115,Experiment,,,,,,,,,20,103,12,12,,,,,,,,,,,,,,,925.4759627,925.9653729,925.4759627,925.9653729,83.67346939,1575398282,1575398284,2.099935055,1575398280,1575398282,,,S1,1,64,M,Expert Radiologist,2019_Dec_03_1223,AdjustEyeTrack,3.1.5,59.69175547
13,Stimuli/Morph13.JPG,Stimuli/Morph13.png,Stimuli/BlurLevel5/BlurEditedMorph13,Stimuli/BlurLevel5/BlurEditedMorph13.png,Stimuli/BlurLevel5/NumberedMorphs/BlurEditedMorph13.png,Stimuli/BlurLevel5/OriginalBlur/BlurEditedMorph13.png,Stimuli/BlurMorphTrio/EditedMorph13.png,010027right.gif,Stimuli/normal_thumbnails/13right.gif,,,,,1,0,1,0,0,40,40,12,,,,,,,,,,,,,,,,,,,,,,,48,41,2,219,-1.942864904,-1.573300978,13,Experiment,,,,,,,,,73,4,9,9,,,,,,,,,,,,,,,930.0829462,930.5821355,930.0829462,930.5821355,87.75510204,1575398287,1575398289,2.466653824,1575398285,1575398287,,,S1,1,64,M,Expert Radiologist,2019_Dec_03_1223,AdjustEyeTrack,3.1.5,59.69175547
53,Stimuli/Morph53.JPG,Stimuli/Morph53.png,Stimuli/BlurLevel5/BlurEditedMorph53,Stimuli/BlurLevel5/BlurEditedMorph53.png,Stimuli/BlurLevel5/NumberedMorphs/BlurEditedMorph53.png,Stimuli/BlurLevel5/OriginalBlur/BlurEditedMorph53.png,Stimuli/BlurMorphTrio/EditedMorph53.png,010149right.gif,Stimuli/normal_thumbnails/53right.gif,,,,,1,0,1,0,0,41,41,52,,,,,,,,,,,,,,,,,,,,,,,62,42,2,130,-1.606969024,1.915111108,53,Experiment,,,,,,,,,41,41,12,12,,,,,,,,,,,,,,,935.6936817,936.1819279,935.6936817,936.1819279,83.67346939,1575398292,1575398294,1.298442125,1575398290,1575398292,,,S1,1,64,M,Expert Radiologist,2019_Dec_03_1223,AdjustEyeTrack,3.1.5,59.69175547
43,Stimuli/Morph43.JPG,Stimuli/Morph43.png,Stimuli/BlurLevel5/BlurEditedMorph43,Stimuli/BlurLevel5/BlurEditedMorph43.png,Stimuli/BlurLevel5/NumberedMorphs/BlurEditedMorph43.png,Stimuli/BlurLevel5/OriginalBlur/BlurEditedMorph43.png,Stimuli/BlurMorphTrio/EditedMorph43.png,010124right.gif,Stimuli/normal_thumbnails/43right.gif,,,,,1,0,1,0,0,42,42,42,,,,,,,,,,,,,,,,,,,,,,,51,43,2,50,1.606969024,1.915111108,43,Experiment,,,,,,,,,28,53,-10,-10,,,,,,,,,,,,,,,940.0516618,940.5488708,940.0516618,940.5488708,86.39455782,1575398297,1575398299,1.849976063,1575398294,1575398297,,,S1,1,64,M,Expert Radiologist,2019_Dec_03_1223,AdjustEyeTrack,3.1.5,59.69175547
37,Stimuli/Morph37.JPG,Stimuli/Morph37.png,Stimuli/BlurLevel5/BlurEditedMorph37,Stimuli/BlurLevel5/BlurEditedMorph37.png,Stimuli/BlurLevel5/NumberedMorphs/BlurEditedMorph37.png,Stimuli/BlurLevel5/OriginalBlur/BlurEditedMorph37.png,Stimuli/BlurMorphTrio/EditedMorph37.png,010097right.gif,Stimuli/normal_thumbnails/37right.gif,,,,,1,0,1,0,0,43,43,36,,,,,,,,,,,,,,,,,,,,,,,91,44,2,82,0.347932752,2.475670172,37,Experiment,,,,,,,,,65,65,-28,-28,,,,,,,,,,,,,,,944.509858,945.0153903,944.509858,945.0153903,61.9047619,1575398301,1575398302,0.617451668,1575398299,1575398301,,,S1,1,64,M,Expert Radiologist,2019_Dec_03_1223,AdjustEyeTrack,3.1.5,59.69175547
141,Stimuli/Morph141.JPG,Stimuli/Morph141.png,Stimuli/BlurLevel5/BlurEditedMorph141,Stimuli/BlurLevel5/BlurEditedMorph141.png,Stimuli/BlurLevel5/NumberedMorphs/BlurEditedMorph141.png,Stimuli/BlurLevel5/OriginalBlur/BlurEditedMorph141.png,Stimuli/BlurMorphTrio/EditedMorph141.png,None,None,,,,,1,0,1,0,0,44,44,140,,,,,,,,,,,,,,,,,,,,,,,68,45,2,232,-1.539153688,-1.970026884,141,Experiment,,,,,,,,,43,136,5,5,,,,,,,,,,,,,,,947.9879426,948.4837479,947.9879426,948.4837479,93.19727891,1575398305,1575398308,3.383039951,1575398302,1575398305,,,S1,1,64,M,Expert Radiologist,2019_Dec_03_1223,AdjustEyeTrack,3.1.5,59.69175547
52,Stimuli/Morph52.JPG,Stimuli/Morph52.png,Stimuli/BlurLevel5/BlurEditedMorph52,Stimuli/BlurLevel5/BlurEditedMorph52.png,Stimuli/BlurLevel5/NumberedMorphs/BlurEditedMorph52.png,Stimuli/BlurLevel5/OriginalBlur/BlurEditedMorph52.png,Stimuli/BlurMorphTrio/EditedMorph52.png,010148right.gif,Stimuli/normal_thumbnails/52right.gif,,,,,1,0,1,0,0,45,45,51,,,,,,,,,,,,,,,,,,,,,,,93,46,2,24,2.283863644,1.016841608,52,Experiment,,,,,,,,,104,51,1,1,,,,,,,,,,,,,,,954.8287323,955.3328621,954.8287323,955.3328621,98.63945578,1575398312,1575398314,2.433131695,1575398308,1575398312,,,S1,1,64,M,Expert Radiologist,2019_Dec_03_1223,AdjustEyeTrack,3.1.5,59.69175547
81,Stimuli/Morph81.JPG,Stimuli/Morph81.png,Stimuli/BlurLevel5/BlurEditedMorph81,Stimuli/BlurLevel5/BlurEditedMorph81.png,Stimuli/BlurLevel5/NumberedMorphs/BlurEditedMorph81.png,Stimuli/BlurLevel5/OriginalBlur/BlurEditedMorph81.png,Stimuli/BlurMorphTrio/EditedMorph81.png,020245right.gif,Stimuli/normal_thumbnails/81right.gif,,,,,1,0,1,0,0,46,46,80,,,,,,,,,,,,,,,,,,,,,,,61,47,2,343,2.39076189,-0.730929262,81,Experiment,,,,,,,,,122,122,-41,-41,,,,,,,,,,,,,,,959.9530121,960.4488087,959.9530121,960.4488087,44.21768707,1575398317,1575398317,0.567553043,1575398314,1575398317,,,S1,1,64,M,Expert Radiologist,2019_Dec_03_1223,AdjustEyeTrack,3.1.5,59.69175547
82,Stimuli/Morph82.JPG,Stimuli/Morph82.png,Stimuli/BlurLevel5/BlurEditedMorph82,Stimuli/BlurLevel5/BlurEditedMorph82.png,Stimuli/BlurLevel5/NumberedMorphs/BlurEditedMorph82.png,Stimuli/BlurLevel5/OriginalBlur/BlurEditedMorph82.png,Stimuli/BlurMorphTrio/EditedMorph82.png,020247right.gif,Stimuli/normal_thumbnails/82right.gif,,,,,1,0,1,0,0,47,47,81,,,,,,,,,,,,,,,,,,,,,,,83,48,2,46,1.736645926,1.798349501,82,Experiment,,,,,,,,,116,90,-8,-8,,,,,,,,,,,,,,,963.3065473,963.7982792,963.3065473,963.7982792,89.11564626,1575398320,1575398324,4.434780836,1575398318,1575398320,,,S1,1,64,M,Expert Radiologist,2019_Dec_03_1223,AdjustEyeTrack,3.1.5,59.69175547
33,Stimuli/Morph33.JPG,Stimuli/Morph33.png,Stimuli/BlurLevel5/BlurEditedMorph33,Stimuli/BlurLevel5/BlurEditedMorph33.png,Stimuli/BlurLevel5/NumberedMorphs/BlurEditedMorph33.png,Stimuli/BlurLevel5/OriginalBlur/BlurEditedMorph33.png,Stimuli/BlurMorphTrio/EditedMorph33.png,010089right.gif,Stimuli/normal_thumbnails/33right.gif,,,,,1,0,1,0,0,48,48,32,,,,,,,,,,,,,,,,,,,,,,,47,49,2,102,-0.519779227,2.445369002,33,Experiment,,,,,,,,,14,14,19,19,,,,,,,,,,,,,,,971.1207813,971.6155051,971.1207813,971.6155051,74.14965986,1575398328,1575398329,1.43203187,1575398325,1575398328,,,S1,1,64,M,Expert Radiologist,2019_Dec_03_1223,AdjustEyeTrack,3.1.5,59.69175547
83,Stimuli/Morph83.JPG,Stimuli/Morph83.png,Stimuli/BlurLevel5/BlurEditedMorph83,Stimuli/BlurLevel5/BlurEditedMorph83.png,Stimuli/BlurLevel5/NumberedMorphs/BlurEditedMorph83.png,Stimuli/BlurLevel5/OriginalBlur/BlurEditedMorph83.png,Stimuli/BlurMorphTrio/EditedMorph83.png,020259right.gif,Stimuli/normal_thumbnails/83right.gif,,,,,1,0,1,0,0,49,49,82,,,,,,,,,,,,,,,,,,,,,,,90,50,2,38,1.970026884,1.539153688,83,Experiment,,,,,,,,,93,93,-10,-10,,,,,,,,,,,,,,,975.1194036,975.6142796,975.1194036,975.6142796,86.39455782,1575398332,1575398332,0.583686113,1575398330,1575398332,,,S1,1,64,M,Expert Radiologist,2019_Dec_03_1223,AdjustEyeTrack,3.1.5,59.69175547
11,Stimuli/Morph11.JPG,Stimuli/Morph11.png,Stimuli/BlurLevel5/BlurEditedMorph11,Stimuli/BlurLevel5/BlurEditedMorph11.png,Stimuli/BlurLevel5/NumberedMorphs/BlurEditedMorph11.png,Stimuli/BlurLevel5/OriginalBlur/BlurEditedMorph11.png,Stimuli/BlurMorphTrio/EditedMorph11.png,010024right.gif,Stimuli/normal_thumbnails/11right.gif,,,,,1,0,1,0,0,50,50,10,,,,,,,,,,,,,,,,,,,,,,,79,51,2,96,-0.261321158,2.486304738,11,Experiment,,,,,,,,,11,11,0,0,,,,,,,,,,,,,,,978.1758048,978.6651204,978.1758048,978.6651204,100,1575398335,1575398335,0.549809933,1575398333,1575398335,,,S1,1,64,M,Expert Radiologist,2019_Dec_03_1223,AdjustEyeTrack,3.1.5,59.69175547
123,Stimuli/Morph123.JPG,Stimuli/Morph123.png,Stimuli/BlurLevel5/BlurEditedMorph123,Stimuli/BlurLevel5/BlurEditedMorph123.png,Stimuli/BlurLevel5/NumberedMorphs/BlurEditedMorph123.png,Stimuli/BlurLevel5/OriginalBlur/BlurEditedMorph123.png,Stimuli/BlurMorphTrio/EditedMorph123.png,None,None,,,,,1,0,1,0,0,51,51,122,,,,,,,,,,,,,,,,,,,,,,,30,52,2,349,2.454067959,-0.477022488,123,Experiment,,,,,,,,,100,100,23,23,,,,,,,,,,,,,,,981.2496384,981.7477862,981.2496384,981.7477862,68.70748299,1575398338,1575398339,0.553141832,1575398336,1575398338,,,S1,1,64,M,Expert Radiologist,2019_Dec_03_1223,AdjustEyeTrack,3.1.5,59.69175547
61,Stimuli/Morph61.JPG,Stimuli/Morph61.png,Stimuli/BlurLevel5/BlurEditedMorph61,Stimuli/BlurLevel5/BlurEditedMorph61.png,Stimuli/BlurLevel5/NumberedMorphs/BlurEditedMorph61.png,Stimuli/BlurLevel5/OriginalBlur/BlurEditedMorph61.png,Stimuli/BlurMorphTrio/EditedMorph61.png,020201right.gif,Stimuli/normal_thumbnails/61right.gif,,,,,1,0,1,0,0,52,52,60,,,,,,,,,,,,,,,,,,,,,,,7,53,2,159,-2.333951066,0.895919874,61,Experiment,,,,,,,,,136,42,19,19,,,,,,,,,,,,,,,984.2607031,984.7819339,984.2607031,984.7819339,74.14965986,1575398341,1575398343,2.048799038,1575398339,1575398341,,,S1,1,64,M,Expert Radiologist,2019_Dec_03_1223,AdjustEyeTrack,3.1.5,59.69175547
45,Stimuli/Morph45.JPG,Stimuli/Morph45.png,Stimuli/BlurLevel5/BlurEditedMorph45,Stimuli/BlurLevel5/BlurEditedMorph45.png,Stimuli/BlurLevel5/NumberedMorphs/BlurEditedMorph45.png,Stimuli/BlurLevel5/OriginalBlur/BlurEditedMorph45.png,Stimuli/BlurMorphTrio/EditedMorph45.png,010127right.gif,Stimuli/normal_thumbnails/45right.gif,,,,,1,0,1,0,0,53,53,44,,,,,,,,,,,,,,,,,,,,,,,83,54,2,196,-2.40315424,-0.68909339,45,Experiment,,,,,,,,,92,43,2,2,,,,,,,,,,,,,,,988.8664828,989.3647831,988.8664828,989.3647831,97.27891156,1575398346,1575398348,2.531463146,1575398343,1575398346,,,S1,1,64,M,Expert Radiologist,2019_Dec_03_1223,AdjustEyeTrack,3.1.5,59.69175547
94,Stimuli/Morph94.JPG,Stimuli/Morph94.png,Stimuli/BlurLevel5/BlurEditedMorph94,Stimuli/BlurLevel5/BlurEditedMorph94.png,Stimuli/BlurLevel5/NumberedMorphs/BlurEditedMorph94.png,Stimuli/BlurLevel5/OriginalBlur/BlurEditedMorph94.png,Stimuli/BlurMorphTrio/EditedMorph94.png,020286right.gif,Stimuli/normal_thumbnails/94right.gif,,,,,1,0,1,0,0,54,54,93,,,,,,,,,,,,,,,,,,,,,,,51,55,2,128,-1.539153688,1.970026884,94,Experiment,,,,,,,,,12,96,-2,-2,,,,,,,,,,,,,,,994.018407,994.5153279,994.018407,994.5153279,97.27891156,1575398351,1575398353,2.081046104,1575398348,1575398351,,,S1,1,64,M,Expert Radiologist,2019_Dec_03_1223,AdjustEyeTrack,3.1.5,59.69175547
119,Stimuli/Morph119.JPG,Stimuli/Morph119.png,Stimuli/BlurLevel5/BlurEditedMorph119,Stimuli/BlurLevel5/BlurEditedMorph119.png,Stimuli/BlurLevel5/NumberedMorphs/BlurEditedMorph119.png,Stimuli/BlurLevel5/OriginalBlur/BlurEditedMorph119.png,Stimuli/BlurMorphTrio/EditedMorph119.png,None,None,,,,,1,0,1,0,0,55,55,118,,,,,,,,,,,,,,,,,,,,,,,94,56,2,173,-2.481365379,0.304673359,119,Experiment,,,,,,,,,57,109,10,10,,,,,,,,,,,,,,,999.2662678,999.7650632,999.2662678,999.7650632,86.39455782,1575398356,1575398358,1.666691065,1575398353,1575398356,,,S1,1,64,M,Expert Radiologist,2019_Dec_03_1223,AdjustEyeTrack,3.1.5,59.69175547
147,Stimuli/Morph147.JPG,Stimuli/Morph147.png,Stimuli/BlurLevel5/BlurEditedMorph147,Stimuli/BlurLevel5/BlurEditedMorph147.png,Stimuli/BlurLevel5/NumberedMorphs/BlurEditedMorph147.png,Stimuli/BlurLevel5/OriginalBlur/BlurEditedMorph147.png,Stimuli/BlurMorphTrio/EditedMorph147.png,None,None,,,,,1,0,1,0,0,56,56,146,,,,,,,,,,,,,,,,,,,,,,,83,57,2,77,0.562377636,2.435925162,147,Experiment,,,,,,,,,121,147,0,0,,,,,,,,,,,,,,,1003.518339,1004.014921,1003.518339,1004.014921,100,1575398360,1575398361,1.199526072,1575398358,1575398360,,,S1,1,64,M,Expert Radiologist,2019_Dec_03_1223,AdjustEyeTrack,3.1.5,59.69175547
72,Stimuli/Morph72.JPG,Stimuli/Morph72.png,Stimuli/BlurLevel5/BlurEditedMorph72,Stimuli/BlurLevel5/BlurEditedMorph72.png,Stimuli/BlurLevel5/NumberedMorphs/BlurEditedMorph72.png,Stimuli/BlurLevel5/OriginalBlur/BlurEditedMorph72.png,Stimuli/BlurMorphTrio/EditedMorph72.png,020227right.gif,Stimuli/normal_thumbnails/72right.gif,,,,,1,0,1,0,0,57,57,71,,,,,,,,,,,,,,,,,,,,,,,65,58,2,204,-2.283863644,-1.016841608,72,Experiment,,,,,,,,,81,81,-9,-9,,,,,,,,,,,,,,,1007.481443,1007.981291,1007.481443,1007.981291,87.75510204,1575398364,1575398366,1.566597939,1575398362,1575398364,,,S1,1,64,M,Expert Radiologist,2019_Dec_03_1223,AdjustEyeTrack,3.1.5,59.69175547
